,date,sid,circle_key,key_pressed,RT,KDS-exclude,attempt_no,isCorrect,trial,block,gblocks,type,pattern,combos,shifted,high-freq,f_type,previous_two,isRep
0,2013-02-06 00:00:00,S01,n,n,0.341288089752,0,1,1,1,1,1,pattern,"['n', 'm', 'z', 'x']",nmzxn,,False,LF-random,,True
1,2013-02-06 00:00:00,S01,n,n,0.289076805115,0,1,1,2,1,1,random,"['n', 'm', 'z', 'x']",nmzxn,,False,LF-random,,True
2,2013-02-06 00:00:00,S01,m,m,0.28702616691599997,0,1,1,3,1,1,pattern,"['n', 'm', 'z', 'x']",nmzxn,nm,True,HF-pattern,nn,False
3,2013-02-06 00:00:00,S01,x,x,0.396821975708,0,1,1,4,1,1,random,"['n', 'm', 'z', 'x']",nmzxn,nx,False,LF-random,nm,False
4,2013-02-06 00:00:00,S01,z,z,0.294226169586,0,1,1,5,1,1,pattern,"['n', 'm', 'z', 'x']",nmzxn,mz,True,HF-pattern,mx,False
5,2013-02-06 00:00:00,S01,n,n,0.27620100975,0,1,1,6,1,1,random,"['n', 'm', 'z', 'x']",nmzxn,xn,True,HF-random,xz,False
6,2013-02-06 00:00:00,S01,x,x,0.274256229401,0,1,1,7,1,1,pattern,"['n', 'm', 'z', 'x']",nmzxn,zx,True,HF-pattern,zn,False
7,2013-02-06 00:00:00,S01,z,z,0.30520606041,0,1,1,8,1,1,random,"['n', 'm', 'z', 'x']",nmzxn,nz,False,LF-random,nx,False
8,2013-02-06 00:00:00,S01,n,n,0.317752838135,0,1,1,9,1,1,pattern,"['n', 'm', 'z', 'x']",nmzxn,xn,True,HF-pattern,xz,False
9,2013-02-06 00:00:00,S01,m,m,0.23467707633999998,0,1,1,10,1,1,random,"['n', 'm', 'z', 'x']",nmzxn,zm,False,LF-random,zn,False
10,2013-02-06 00:00:00,S01,m,m,0.378177881241,0,1,1,11,1,1,pattern,"['n', 'm', 'z', 'x']",nmzxn,nm,True,HF-pattern,nm,True
11,2013-02-06 00:00:00,S01,x,x,0.29283118248,0,1,1,12,1,1,random,"['n', 'm', 'z', 'x']",nmzxn,mx,False,LF-random,mm,False
12,2013-02-06 00:00:00,S01,z,z,0.291097164154,0,1,1,13,1,1,pattern,"['n', 'm', 'z', 'x']",nmzxn,mz,True,HF-pattern,mx,False
13,2013-02-06 00:00:00,S01,x,x,0.288399934769,0,1,1,14,1,1,random,"['n', 'm', 'z', 'x']",nmzxn,xx,False,LF-random,xz,True
14,2013-02-06 00:00:00,S01,x,x,0.318425893784,0,1,1,15,1,1,pattern,"['n', 'm', 'z', 'x']",nmzxn,zx,True,HF-pattern,zx,True
15,2013-02-06 00:00:00,S01,z,z,0.314116954803,0,1,1,16,1,1,random,"['n', 'm', 'z', 'x']",nmzxn,xz,False,LF-random,xx,False
16,2013-02-06 00:00:00,S01,n,x,0.247260093689,0,1,0,17,1,1,pattern,"['n', 'm', 'z', 'x']",nmzxn,xn,True,HF-pattern,xz,False
18,2013-02-06 00:00:00,S01,z,z,0.28252100944499997,0,1,1,18,1,1,random,"['n', 'm', 'z', 'x']",nmzxn,zz,False,LF-random,zn,True
19,2013-02-06 00:00:00,S01,m,n,0.248492002487,0,1,0,19,1,1,pattern,"['n', 'm', 'z', 'x']",nmzxn,nm,True,HF-pattern,nz,False
21,2013-02-06 00:00:00,S01,z,z,0.403226137161,0,1,1,20,1,1,random,"['n', 'm', 'z', 'x']",nmzxn,zz,False,LF-random,zm,True
22,2013-02-06 00:00:00,S01,z,z,0.33226203918499997,0,1,1,21,1,1,pattern,"['n', 'm', 'z', 'x']",nmzxn,mz,True,HF-pattern,mz,True
23,2013-02-06 00:00:00,S01,x,x,0.375920057297,0,1,1,22,1,1,random,"['n', 'm', 'z', 'x']",nmzxn,zx,True,HF-random,zz,False
24,2013-02-06 00:00:00,S01,x,x,0.274319171906,0,1,1,23,1,1,pattern,"['n', 'm', 'z', 'x']",nmzxn,zx,True,HF-pattern,zx,True
25,2013-02-06 00:00:00,S01,z,z,0.352524995804,0,1,1,24,1,1,random,"['n', 'm', 'z', 'x']",nmzxn,xz,False,LF-random,xx,False
26,2013-02-06 00:00:00,S01,n,n,0.347789049149,0,1,1,25,1,1,pattern,"['n', 'm', 'z', 'x']",nmzxn,xn,True,HF-pattern,xz,False
27,2013-02-06 00:00:00,S01,n,n,0.310408830643,0,1,1,26,1,1,random,"['n', 'm', 'z', 'x']",nmzxn,zn,False,LF-random,zn,True
28,2013-02-06 00:00:00,S01,m,m,0.291840076447,0,1,1,27,1,1,pattern,"['n', 'm', 'z', 'x']",nmzxn,nm,True,HF-pattern,nn,False
29,2013-02-06 00:00:00,S01,m,m,0.289214849472,0,1,1,28,1,1,random,"['n', 'm', 'z', 'x']",nmzxn,nm,True,HF-random,nm,True
30,2013-02-06 00:00:00,S01,z,z,0.335462093353,0,1,1,29,1,1,pattern,"['n', 'm', 'z', 'x']",nmzxn,mz,True,HF-pattern,mm,False
31,2013-02-06 00:00:00,S01,n,n,0.34671783447300003,0,1,1,30,1,1,random,"['n', 'm', 'z', 'x']",nmzxn,mn,False,LF-random,mz,False
32,2013-02-06 00:00:00,S01,x,x,0.294137954712,0,1,1,31,1,1,pattern,"['n', 'm', 'z', 'x']",nmzxn,zx,True,HF-pattern,zn,False
33,2013-02-06 00:00:00,S01,n,n,0.27558493614199997,0,1,1,32,1,1,random,"['n', 'm', 'z', 'x']",nmzxn,nn,False,LF-random,nx,True
34,2013-02-06 00:00:00,S01,n,n,0.338350057602,0,1,1,33,1,1,pattern,"['n', 'm', 'z', 'x']",nmzxn,xn,True,HF-pattern,xn,True
35,2013-02-06 00:00:00,S01,x,z,0.302259922028,0,1,0,34,1,1,random,"['n', 'm', 'z', 'x']",nmzxn,nx,False,LF-random,nn,False
37,2013-02-06 00:00:00,S01,m,x,0.038371086120599994,0,1,0,35,1,1,pattern,"['n', 'm', 'z', 'x']",nmzxn,nm,True,HF-pattern,nx,False
39,2013-02-06 00:00:00,S01,x,x,0.273972034454,0,1,1,36,1,1,random,"['n', 'm', 'z', 'x']",nmzxn,xx,False,LF-random,xm,True
40,2013-02-06 00:00:00,S01,z,z,0.28854608535799997,0,1,1,37,1,1,pattern,"['n', 'm', 'z', 'x']",nmzxn,mz,True,HF-pattern,mx,False
41,2013-02-06 00:00:00,S01,m,m,0.33441400528,0,1,1,38,1,1,random,"['n', 'm', 'z', 'x']",nmzxn,xm,False,LF-random,xz,False
42,2013-02-06 00:00:00,S01,x,n,0.266038894653,0,1,0,39,1,1,pattern,"['n', 'm', 'z', 'x']",nmzxn,zx,True,HF-pattern,zm,False
44,2013-02-06 00:00:00,S01,m,m,0.298836946487,0,1,1,40,1,1,random,"['n', 'm', 'z', 'x']",nmzxn,mm,False,LF-random,mx,True
45,2013-02-06 00:00:00,S01,n,n,0.472481012344,0,1,1,41,1,1,pattern,"['n', 'm', 'z', 'x']",nmzxn,xn,True,HF-pattern,xm,False
46,2013-02-06 00:00:00,S01,m,m,0.350195884705,0,1,1,42,1,1,random,"['n', 'm', 'z', 'x']",nmzxn,mm,False,LF-random,mn,True
47,2013-02-06 00:00:00,S01,m,m,0.32950592041,0,1,1,43,1,1,pattern,"['n', 'm', 'z', 'x']",nmzxn,nm,True,HF-pattern,nm,True
48,2013-02-06 00:00:00,S01,n,x,0.34135389328000004,0,1,0,44,1,1,random,"['n', 'm', 'z', 'x']",nmzxn,mn,False,LF-random,mm,False
50,2013-02-06 00:00:00,S01,z,z,0.382152795792,0,1,1,45,1,1,pattern,"['n', 'm', 'z', 'x']",nmzxn,mz,True,HF-pattern,mn,False
51,2013-02-06 00:00:00,S01,z,z,0.375313043594,0,1,1,46,1,1,random,"['n', 'm', 'z', 'x']",nmzxn,nz,False,LF-random,nz,True
52,2013-02-06 00:00:00,S01,x,x,0.354260921478,0,1,1,47,1,1,pattern,"['n', 'm', 'z', 'x']",nmzxn,zx,True,HF-pattern,zz,False
53,2013-02-06 00:00:00,S01,n,n,0.268675088882,0,1,1,48,1,1,random,"['n', 'm', 'z', 'x']",nmzxn,zn,False,LF-random,zx,False
54,2013-02-06 00:00:00,S01,n,n,0.363660097122,0,1,1,49,1,1,pattern,"['n', 'm', 'z', 'x']",nmzxn,xn,True,HF-pattern,xn,True
55,2013-02-06 00:00:00,S01,x,x,0.374341011047,0,1,1,50,1,1,random,"['n', 'm', 'z', 'x']",nmzxn,nx,False,LF-random,nn,False
56,2013-02-06 00:00:00,S01,m,m,0.385231971741,0,1,1,51,1,1,pattern,"['n', 'm', 'z', 'x']",nmzxn,nm,True,HF-pattern,nx,False
57,2013-02-06 00:00:00,S01,z,x,0.314157009125,0,1,0,52,1,1,random,"['n', 'm', 'z', 'x']",nmzxn,xz,False,LF-random,xm,False
59,2013-02-06 00:00:00,S01,z,z,0.34615516662600004,0,1,1,53,1,1,pattern,"['n', 'm', 'z', 'x']",nmzxn,mz,True,HF-pattern,mz,True
60,2013-02-06 00:00:00,S01,n,n,0.406053066254,0,1,1,54,1,1,random,"['n', 'm', 'z', 'x']",nmzxn,zn,False,LF-random,zz,False
61,2013-02-06 00:00:00,S01,x,x,0.334804058075,0,1,1,55,1,1,pattern,"['n', 'm', 'z', 'x']",nmzxn,zx,True,HF-pattern,zn,False
62,2013-02-06 00:00:00,S01,m,m,0.36283302307099996,0,1,1,56,1,1,random,"['n', 'm', 'z', 'x']",nmzxn,nm,True,HF-random,nx,False
63,2013-02-06 00:00:00,S01,n,n,0.35746002197300003,0,1,1,57,1,1,pattern,"['n', 'm', 'z', 'x']",nmzxn,xn,True,HF-pattern,xm,False
64,2013-02-06 00:00:00,S01,z,z,0.384736061096,0,1,1,58,1,1,random,"['n', 'm', 'z', 'x']",nmzxn,mz,True,HF-random,mn,False
65,2013-02-06 00:00:00,S01,m,m,0.36209702491800005,0,1,1,59,1,1,pattern,"['n', 'm', 'z', 'x']",nmzxn,nm,True,HF-pattern,nz,False
66,2013-02-06 00:00:00,S01,m,m,0.32532119751,0,1,1,60,1,1,random,"['n', 'm', 'z', 'x']",nmzxn,zm,False,LF-random,zm,True
67,2013-02-06 00:00:00,S01,z,z,0.337594985962,0,1,1,61,1,1,pattern,"['n', 'm', 'z', 'x']",nmzxn,mz,True,HF-pattern,mm,False
68,2013-02-06 00:00:00,S01,m,m,0.333649873734,0,1,1,62,1,1,random,"['n', 'm', 'z', 'x']",nmzxn,mm,False,LF-random,mz,True
69,2013-02-06 00:00:00,S01,x,n,0.37684011459399996,0,1,0,63,1,1,pattern,"['n', 'm', 'z', 'x']",nmzxn,zx,True,HF-pattern,zm,False
71,2013-02-06 00:00:00,S01,m,m,0.327538013458,0,1,1,64,1,1,random,"['n', 'm', 'z', 'x']",nmzxn,mm,False,LF-random,mx,True
72,2013-02-06 00:00:00,S01,n,n,0.435688018799,0,1,1,65,1,1,pattern,"['n', 'm', 'z', 'x']",nmzxn,xn,True,HF-pattern,xm,False
73,2013-02-06 00:00:00,S01,z,z,1.5625197887399997,0,1,1,66,1,1,random,"['n', 'm', 'z', 'x']",nmzxn,mz,True,HF-random,mn,False
74,2013-02-06 00:00:00,S01,m,m,0.356081008911,0,1,1,67,1,1,pattern,"['n', 'm', 'z', 'x']",nmzxn,nm,True,HF-pattern,nz,False
75,2013-02-06 00:00:00,S01,x,n,0.302978992462,0,1,0,68,1,1,random,"['n', 'm', 'z', 'x']",nmzxn,zx,True,HF-random,zm,False
77,2013-02-06 00:00:00,S01,z,z,0.337747097015,0,1,1,69,1,1,pattern,"['n', 'm', 'z', 'x']",nmzxn,mz,True,HF-pattern,mx,False
78,2013-02-06 00:00:00,S01,m,m,0.38098502159100006,0,1,1,70,1,1,random,"['n', 'm', 'z', 'x']",nmzxn,xm,False,LF-random,xz,False
79,2013-02-06 00:00:00,S01,x,x,0.37509703636200004,0,1,1,71,1,1,pattern,"['n', 'm', 'z', 'x']",nmzxn,zx,True,HF-pattern,zm,False
80,2013-02-06 00:00:00,S01,m,m,0.337075948715,0,1,1,72,1,1,random,"['n', 'm', 'z', 'x']",nmzxn,mm,False,LF-random,mx,True
81,2013-02-06 00:00:00,S01,n,n,0.317141056061,0,1,1,73,1,1,pattern,"['n', 'm', 'z', 'x']",nmzxn,xn,True,HF-pattern,xm,False
82,2013-02-06 00:00:00,S01,m,m,0.329106807709,0,1,1,74,1,1,random,"['n', 'm', 'z', 'x']",nmzxn,mm,False,LF-random,mn,True
83,2013-02-06 00:00:00,S01,m,m,0.30989003181499997,0,1,1,75,1,1,pattern,"['n', 'm', 'z', 'x']",nmzxn,nm,True,HF-pattern,nm,True
84,2013-02-06 00:00:00,S01,n,n,0.40286207199100005,0,1,1,76,1,1,random,"['n', 'm', 'z', 'x']",nmzxn,mn,False,LF-random,mm,False
85,2013-02-06 00:00:00,S01,z,z,0.331968069077,0,1,1,77,1,1,pattern,"['n', 'm', 'z', 'x']",nmzxn,mz,True,HF-pattern,mn,False
86,2013-02-06 00:00:00,S01,x,x,0.327172040939,0,1,1,78,1,1,random,"['n', 'm', 'z', 'x']",nmzxn,nx,False,LF-random,nz,False
87,2013-02-06 00:00:00,S01,x,x,0.292294025421,0,1,1,79,1,1,pattern,"['n', 'm', 'z', 'x']",nmzxn,zx,True,HF-pattern,zx,True
88,2013-02-06 00:00:00,S01,z,z,0.36955904960600006,0,1,1,80,1,1,random,"['n', 'm', 'z', 'x']",nmzxn,xz,False,LF-random,xx,False
89,2013-02-06 00:00:00,S01,n,n,0.320482969284,0,1,1,81,2,1,pattern,"['n', 'm', 'z', 'x']",nmzxn,xn,True,HF-pattern,xz,False
90,2013-02-06 00:00:00,S01,z,z,0.349451065063,0,1,1,82,2,1,random,"['n', 'm', 'z', 'x']",nmzxn,zz,False,LF-random,zn,True
91,2013-02-06 00:00:00,S01,m,m,0.31223607063299996,0,1,1,83,2,1,pattern,"['n', 'm', 'z', 'x']",nmzxn,nm,True,HF-pattern,nz,False
92,2013-02-06 00:00:00,S01,n,n,0.261506795883,0,1,1,84,2,1,random,"['n', 'm', 'z', 'x']",nmzxn,zn,False,LF-random,zm,False
93,2013-02-06 00:00:00,S01,z,z,0.37265706062299997,0,1,1,85,2,1,pattern,"['n', 'm', 'z', 'x']",nmzxn,mz,True,HF-pattern,mn,False
94,2013-02-06 00:00:00,S01,z,z,0.33518409729000004,0,1,1,86,2,1,random,"['n', 'm', 'z', 'x']",nmzxn,nz,False,LF-random,nz,True
95,2013-02-06 00:00:00,S01,x,x,0.39474105835,0,1,1,87,2,1,pattern,"['n', 'm', 'z', 'x']",nmzxn,zx,True,HF-pattern,zz,False
96,2013-02-06 00:00:00,S01,m,m,0.29238677024799997,0,1,1,88,2,1,random,"['n', 'm', 'z', 'x']",nmzxn,zm,False,LF-random,zx,False
97,2013-02-06 00:00:00,S01,n,n,0.242266178131,0,1,1,89,2,1,pattern,"['n', 'm', 'z', 'x']",nmzxn,xn,True,HF-pattern,xm,False
98,2013-02-06 00:00:00,S01,z,z,0.36951208114600004,0,1,1,90,2,1,random,"['n', 'm', 'z', 'x']",nmzxn,mz,True,HF-random,mn,False
99,2013-02-06 00:00:00,S01,m,m,0.284301042557,0,1,1,91,2,1,pattern,"['n', 'm', 'z', 'x']",nmzxn,nm,True,HF-pattern,nz,False
100,2013-02-06 00:00:00,S01,x,x,0.393680095673,0,1,1,92,2,1,random,"['n', 'm', 'z', 'x']",nmzxn,zx,True,HF-random,zm,False
101,2013-02-06 00:00:00,S01,z,z,0.27574992179900004,0,1,1,93,2,1,pattern,"['n', 'm', 'z', 'x']",nmzxn,mz,True,HF-pattern,mx,False
102,2013-02-06 00:00:00,S01,x,x,0.28989982605000003,0,1,1,94,2,1,random,"['n', 'm', 'z', 'x']",nmzxn,xx,False,LF-random,xz,True
103,2013-02-06 00:00:00,S01,x,x,0.32009100914,0,1,1,95,2,1,pattern,"['n', 'm', 'z', 'x']",nmzxn,zx,True,HF-pattern,zx,True
104,2013-02-06 00:00:00,S01,z,z,0.316388845444,0,1,1,96,2,1,random,"['n', 'm', 'z', 'x']",nmzxn,xz,False,LF-random,xx,False
105,2013-02-06 00:00:00,S01,n,n,0.37690806388899994,0,1,1,97,2,1,pattern,"['n', 'm', 'z', 'x']",nmzxn,xn,True,HF-pattern,xz,False
106,2013-02-06 00:00:00,S01,m,m,0.24308800697299998,0,1,1,98,2,1,random,"['n', 'm', 'z', 'x']",nmzxn,zm,False,LF-random,zn,False
107,2013-02-06 00:00:00,S01,m,m,0.307196140289,0,1,1,99,2,1,pattern,"['n', 'm', 'z', 'x']",nmzxn,nm,True,HF-pattern,nm,True
108,2013-02-06 00:00:00,S01,z,z,0.320233106613,0,1,1,100,2,1,random,"['n', 'm', 'z', 'x']",nmzxn,mz,True,HF-random,mm,False
109,2013-02-06 00:00:00,S01,z,z,0.300466060638,0,1,1,101,2,1,pattern,"['n', 'm', 'z', 'x']",nmzxn,mz,True,HF-pattern,mz,True
110,2013-02-06 00:00:00,S01,m,m,0.31368803978,0,1,1,102,2,1,random,"['n', 'm', 'z', 'x']",nmzxn,zm,False,LF-random,zz,False
111,2013-02-06 00:00:00,S01,x,x,0.39030098915100003,0,1,1,103,2,1,pattern,"['n', 'm', 'z', 'x']",nmzxn,zx,True,HF-pattern,zm,False
112,2013-02-06 00:00:00,S01,n,n,0.288587093353,0,1,1,104,2,1,random,"['n', 'm', 'z', 'x']",nmzxn,mn,False,LF-random,mx,False
113,2013-02-06 00:00:00,S01,n,x,0.301732063293,0,1,0,105,2,1,pattern,"['n', 'm', 'z', 'x']",nmzxn,xn,True,HF-pattern,xn,True
115,2013-02-06 00:00:00,S01,z,z,0.328502178192,0,1,1,106,2,1,random,"['n', 'm', 'z', 'x']",nmzxn,nz,False,LF-random,nn,False
116,2013-02-06 00:00:00,S01,m,m,0.30843091011,0,1,1,107,2,1,pattern,"['n', 'm', 'z', 'x']",nmzxn,nm,True,HF-pattern,nz,False
117,2013-02-06 00:00:00,S01,z,z,0.290045976639,0,1,1,108,2,1,random,"['n', 'm', 'z', 'x']",nmzxn,zz,False,LF-random,zm,True
118,2013-02-06 00:00:00,S01,z,z,0.335407018661,0,1,1,109,2,1,pattern,"['n', 'm', 'z', 'x']",nmzxn,mz,True,HF-pattern,mz,True
119,2013-02-06 00:00:00,S01,x,x,0.379630804062,0,1,1,110,2,1,random,"['n', 'm', 'z', 'x']",nmzxn,zx,True,HF-random,zz,False
120,2013-02-06 00:00:00,S01,x,x,0.325585126877,0,1,1,111,2,1,pattern,"['n', 'm', 'z', 'x']",nmzxn,zx,True,HF-pattern,zx,True
121,2013-02-06 00:00:00,S01,z,z,0.30643081665,0,1,1,112,2,1,random,"['n', 'm', 'z', 'x']",nmzxn,xz,False,LF-random,xx,False
122,2013-02-06 00:00:00,S01,n,n,0.36735296249399996,0,1,1,113,2,1,pattern,"['n', 'm', 'z', 'x']",nmzxn,xn,True,HF-pattern,xz,False
123,2013-02-06 00:00:00,S01,m,m,0.265743017197,0,1,1,114,2,1,random,"['n', 'm', 'z', 'x']",nmzxn,zm,False,LF-random,zn,False
124,2013-02-06 00:00:00,S01,m,m,0.280237913132,0,1,1,115,2,1,pattern,"['n', 'm', 'z', 'x']",nmzxn,nm,True,HF-pattern,nm,True
125,2013-02-06 00:00:00,S01,z,z,0.31049323081999997,0,1,1,116,2,1,random,"['n', 'm', 'z', 'x']",nmzxn,mz,True,HF-random,mm,False
126,2013-02-06 00:00:00,S01,z,z,0.340031862259,0,1,1,117,2,1,pattern,"['n', 'm', 'z', 'x']",nmzxn,mz,True,HF-pattern,mz,True
127,2013-02-06 00:00:00,S01,z,z,0.351073026657,0,1,1,118,2,1,random,"['n', 'm', 'z', 'x']",nmzxn,zz,False,LF-random,zz,True
128,2013-02-06 00:00:00,S01,x,x,0.346517801285,0,1,1,119,2,1,pattern,"['n', 'm', 'z', 'x']",nmzxn,zx,True,HF-pattern,zz,False
129,2013-02-06 00:00:00,S01,m,m,0.325803995132,0,1,1,120,2,1,random,"['n', 'm', 'z', 'x']",nmzxn,zm,False,LF-random,zx,False
130,2013-02-06 00:00:00,S01,n,n,0.24271416664099998,0,1,1,121,2,1,pattern,"['n', 'm', 'z', 'x']",nmzxn,xn,True,HF-pattern,xm,False
131,2013-02-06 00:00:00,S01,z,z,0.29009485244800004,0,1,1,122,2,1,random,"['n', 'm', 'z', 'x']",nmzxn,mz,True,HF-random,mn,False
132,2013-02-06 00:00:00,S01,m,m,0.336361885071,0,1,1,123,2,1,pattern,"['n', 'm', 'z', 'x']",nmzxn,nm,True,HF-pattern,nz,False
133,2013-02-06 00:00:00,S01,x,x,0.37958407401999994,0,1,1,124,2,1,random,"['n', 'm', 'z', 'x']",nmzxn,zx,True,HF-random,zm,False
134,2013-02-06 00:00:00,S01,z,z,0.294435977936,0,1,1,125,2,1,pattern,"['n', 'm', 'z', 'x']",nmzxn,mz,True,HF-pattern,mx,False
135,2013-02-06 00:00:00,S01,n,n,0.324039936066,0,1,1,126,2,1,random,"['n', 'm', 'z', 'x']",nmzxn,xn,True,HF-random,xz,False
136,2013-02-06 00:00:00,S01,x,x,0.33663988113399995,0,1,1,127,2,1,pattern,"['n', 'm', 'z', 'x']",nmzxn,zx,True,HF-pattern,zn,False
137,2013-02-06 00:00:00,S01,z,z,0.268347978592,0,1,1,128,2,1,random,"['n', 'm', 'z', 'x']",nmzxn,nz,False,LF-random,nx,False
138,2013-02-06 00:00:00,S01,n,n,0.37890815734899996,0,1,1,129,2,1,pattern,"['n', 'm', 'z', 'x']",nmzxn,xn,True,HF-pattern,xz,False
139,2013-02-06 00:00:00,S01,z,z,0.325143814087,0,1,1,130,2,1,random,"['n', 'm', 'z', 'x']",nmzxn,zz,False,LF-random,zn,True
140,2013-02-06 00:00:00,S01,m,m,0.32139492034899997,0,1,1,131,2,1,pattern,"['n', 'm', 'z', 'x']",nmzxn,nm,True,HF-pattern,nz,False
141,2013-02-06 00:00:00,S01,m,m,0.318097114563,0,1,1,132,2,1,random,"['n', 'm', 'z', 'x']",nmzxn,zm,False,LF-random,zm,True
142,2013-02-06 00:00:00,S01,z,z,0.297992944717,0,1,1,133,2,1,pattern,"['n', 'm', 'z', 'x']",nmzxn,mz,True,HF-pattern,mm,False
143,2013-02-06 00:00:00,S01,z,z,0.359602928162,0,1,1,134,2,1,random,"['n', 'm', 'z', 'x']",nmzxn,mz,True,HF-random,mz,True
144,2013-02-06 00:00:00,S01,x,x,0.290028810501,0,1,1,135,2,1,pattern,"['n', 'm', 'z', 'x']",nmzxn,zx,True,HF-pattern,zz,False
145,2013-02-06 00:00:00,S01,n,n,0.256489992142,0,1,1,136,2,1,random,"['n', 'm', 'z', 'x']",nmzxn,zn,False,LF-random,zx,False
146,2013-02-06 00:00:00,S01,n,n,0.318907976151,0,1,1,137,2,1,pattern,"['n', 'm', 'z', 'x']",nmzxn,xn,True,HF-pattern,xn,True
147,2013-02-06 00:00:00,S01,n,n,0.347940921783,0,1,1,138,2,1,random,"['n', 'm', 'z', 'x']",nmzxn,nn,False,LF-random,nn,True
148,2013-02-06 00:00:00,S01,m,m,0.31069707870499996,0,1,1,139,2,1,pattern,"['n', 'm', 'z', 'x']",nmzxn,nm,True,HF-pattern,nn,False
149,2013-02-06 00:00:00,S01,z,z,0.324187994003,0,1,1,140,2,1,random,"['n', 'm', 'z', 'x']",nmzxn,nz,False,LF-random,nm,False
150,2013-02-06 00:00:00,S01,z,z,0.304462909698,0,1,1,141,2,1,pattern,"['n', 'm', 'z', 'x']",nmzxn,mz,True,HF-pattern,mz,True
151,2013-02-06 00:00:00,S01,m,m,0.365723848343,0,1,1,142,2,1,random,"['n', 'm', 'z', 'x']",nmzxn,zm,False,LF-random,zz,False
152,2013-02-06 00:00:00,S01,x,x,0.279952049255,0,1,1,143,2,1,pattern,"['n', 'm', 'z', 'x']",nmzxn,zx,True,HF-pattern,zm,False
153,2013-02-06 00:00:00,S01,n,n,0.342262029648,0,1,1,144,2,1,random,"['n', 'm', 'z', 'x']",nmzxn,mn,False,LF-random,mx,False
154,2013-02-06 00:00:00,S01,n,n,0.338264942169,0,1,1,145,2,1,pattern,"['n', 'm', 'z', 'x']",nmzxn,xn,True,HF-pattern,xn,True
155,2013-02-06 00:00:00,S01,n,n,0.301651000977,0,1,1,146,2,1,random,"['n', 'm', 'z', 'x']",nmzxn,nn,False,LF-random,nn,True
156,2013-02-06 00:00:00,S01,m,m,0.298934936523,0,1,1,147,2,1,pattern,"['n', 'm', 'z', 'x']",nmzxn,nm,True,HF-pattern,nn,False
157,2013-02-06 00:00:00,S01,z,z,0.327613115311,0,1,1,148,2,1,random,"['n', 'm', 'z', 'x']",nmzxn,nz,False,LF-random,nm,False
158,2013-02-06 00:00:00,S01,z,z,0.340543031693,0,1,1,149,2,1,pattern,"['n', 'm', 'z', 'x']",nmzxn,mz,True,HF-pattern,mz,True
159,2013-02-06 00:00:00,S01,n,n,0.399642944336,0,1,1,150,2,1,random,"['n', 'm', 'z', 'x']",nmzxn,zn,False,LF-random,zz,False
160,2013-02-06 00:00:00,S01,x,x,0.265099048615,0,1,1,151,2,1,pattern,"['n', 'm', 'z', 'x']",nmzxn,zx,True,HF-pattern,zn,False
161,2013-02-06 00:00:00,S01,n,n,0.279209136963,0,1,1,152,2,1,random,"['n', 'm', 'z', 'x']",nmzxn,nn,False,LF-random,nx,True
162,2013-02-06 00:00:00,S01,n,n,0.310231924057,0,1,1,153,2,1,pattern,"['n', 'm', 'z', 'x']",nmzxn,xn,True,HF-pattern,xn,True
163,2013-02-06 00:00:00,S01,n,n,0.3231549263,0,1,1,154,2,1,random,"['n', 'm', 'z', 'x']",nmzxn,nn,False,LF-random,nn,True
164,2013-02-06 00:00:00,S01,m,m,0.303779125214,0,1,1,155,2,1,pattern,"['n', 'm', 'z', 'x']",nmzxn,nm,True,HF-pattern,nn,False
165,2013-02-06 00:00:00,S01,n,n,0.26872396469099996,0,1,1,156,2,1,random,"['n', 'm', 'z', 'x']",nmzxn,nn,False,LF-random,nm,True
166,2013-02-06 00:00:00,S01,z,z,0.331111907959,0,1,1,157,2,1,pattern,"['n', 'm', 'z', 'x']",nmzxn,mz,True,HF-pattern,mn,False
167,2013-02-06 00:00:00,S01,x,n,0.311167955399,0,1,0,158,2,1,random,"['n', 'm', 'z', 'x']",nmzxn,nx,False,LF-random,nz,False
169,2013-02-06 00:00:00,S01,x,x,0.29123592376699997,0,1,1,159,2,1,pattern,"['n', 'm', 'z', 'x']",nmzxn,zx,True,HF-pattern,zx,True
170,2013-02-06 00:00:00,S01,z,z,0.320567131042,0,1,1,160,2,1,random,"['n', 'm', 'z', 'x']",nmzxn,xz,False,LF-random,xx,False
171,2013-02-06 00:00:00,S01,n,n,0.357959032059,0,1,1,161,3,2,pattern,"['n', 'm', 'z', 'x']",nmzxn,xn,True,HF-pattern,xz,False
172,2013-02-06 00:00:00,S01,m,m,0.25683021545400003,0,1,1,162,3,2,random,"['n', 'm', 'z', 'x']",nmzxn,zm,False,LF-random,zn,False
173,2013-02-06 00:00:00,S01,m,m,0.256032943726,0,1,1,163,3,2,pattern,"['n', 'm', 'z', 'x']",nmzxn,nm,True,HF-pattern,nm,True
174,2013-02-06 00:00:00,S01,m,m,0.302880048752,0,1,1,164,3,2,random,"['n', 'm', 'z', 'x']",nmzxn,mm,False,LF-random,mm,True
175,2013-02-06 00:00:00,S01,z,z,0.284435033798,0,1,1,165,3,2,pattern,"['n', 'm', 'z', 'x']",nmzxn,mz,True,HF-pattern,mm,False
176,2013-02-06 00:00:00,S01,x,x,0.31380391120900003,0,1,1,166,3,2,random,"['n', 'm', 'z', 'x']",nmzxn,mx,False,LF-random,mz,False
177,2013-02-06 00:00:00,S01,x,x,0.278815984726,0,1,1,167,3,2,pattern,"['n', 'm', 'z', 'x']",nmzxn,zx,True,HF-pattern,zx,True
178,2013-02-06 00:00:00,S01,z,z,0.309108018875,0,1,1,168,3,2,random,"['n', 'm', 'z', 'x']",nmzxn,xz,False,LF-random,xx,False
179,2013-02-06 00:00:00,S01,n,n,0.322448015213,0,1,1,169,3,2,pattern,"['n', 'm', 'z', 'x']",nmzxn,xn,True,HF-pattern,xz,False
180,2013-02-06 00:00:00,S01,m,m,0.270629882812,0,1,1,170,3,2,random,"['n', 'm', 'z', 'x']",nmzxn,zm,False,LF-random,zn,False
181,2013-02-06 00:00:00,S01,m,m,0.284945964813,0,1,1,171,3,2,pattern,"['n', 'm', 'z', 'x']",nmzxn,nm,True,HF-pattern,nm,True
182,2013-02-06 00:00:00,S01,x,z,0.299112081528,0,1,0,172,3,2,random,"['n', 'm', 'z', 'x']",nmzxn,mx,False,LF-random,mm,False
184,2013-02-06 00:00:00,S01,z,z,0.28492212295499997,0,1,1,173,3,2,pattern,"['n', 'm', 'z', 'x']",nmzxn,mz,True,HF-pattern,mx,False
185,2013-02-06 00:00:00,S01,x,x,0.330656766891,0,1,1,174,3,2,random,"['n', 'm', 'z', 'x']",nmzxn,xx,False,LF-random,xz,True
186,2013-02-06 00:00:00,S01,x,x,0.342395067215,0,1,1,175,3,2,pattern,"['n', 'm', 'z', 'x']",nmzxn,zx,True,HF-pattern,zx,True
187,2013-02-06 00:00:00,S01,x,x,0.258163928986,0,1,1,176,3,2,random,"['n', 'm', 'z', 'x']",nmzxn,xx,False,LF-random,xx,True
188,2013-02-06 00:00:00,S01,n,n,0.304999828339,0,1,1,177,3,2,pattern,"['n', 'm', 'z', 'x']",nmzxn,xn,True,HF-pattern,xx,False
189,2013-02-06 00:00:00,S01,m,m,0.254627943039,0,1,1,178,3,2,random,"['n', 'm', 'z', 'x']",nmzxn,xm,False,LF-random,xn,False
190,2013-02-06 00:00:00,S01,m,m,0.269496917725,0,1,1,179,3,2,pattern,"['n', 'm', 'z', 'x']",nmzxn,nm,True,HF-pattern,nm,True
191,2013-02-06 00:00:00,S01,x,x,0.316215991974,0,1,1,180,3,2,random,"['n', 'm', 'z', 'x']",nmzxn,mx,False,LF-random,mm,False
192,2013-02-06 00:00:00,S01,z,z,0.296893835068,0,1,1,181,3,2,pattern,"['n', 'm', 'z', 'x']",nmzxn,mz,True,HF-pattern,mx,False
193,2013-02-06 00:00:00,S01,z,z,0.26252007484400003,0,1,1,182,3,2,random,"['n', 'm', 'z', 'x']",nmzxn,xz,False,LF-random,xz,True
194,2013-02-06 00:00:00,S01,x,x,0.325587034225,0,1,1,183,3,2,pattern,"['n', 'm', 'z', 'x']",nmzxn,zx,True,HF-pattern,zz,False
195,2013-02-06 00:00:00,S01,x,x,0.27366614341699996,0,1,1,184,3,2,random,"['n', 'm', 'z', 'x']",nmzxn,zx,True,HF-random,zx,True
196,2013-02-06 00:00:00,S01,n,n,0.304489135742,0,1,1,185,3,2,pattern,"['n', 'm', 'z', 'x']",nmzxn,xn,True,HF-pattern,xx,False
197,2013-02-06 00:00:00,S01,x,x,0.269196987152,0,1,1,186,3,2,random,"['n', 'm', 'z', 'x']",nmzxn,xx,False,LF-random,xn,True
198,2013-02-06 00:00:00,S01,m,m,0.332249164581,0,1,1,187,3,2,pattern,"['n', 'm', 'z', 'x']",nmzxn,nm,True,HF-pattern,nx,False
199,2013-02-06 00:00:00,S01,x,x,0.327538013458,0,1,1,188,3,2,random,"['n', 'm', 'z', 'x']",nmzxn,xx,False,LF-random,xm,True
200,2013-02-06 00:00:00,S01,z,x,0.260250091553,0,1,0,189,3,2,pattern,"['n', 'm', 'z', 'x']",nmzxn,mz,True,HF-pattern,mx,False
202,2013-02-06 00:00:00,S01,x,x,0.318248033524,0,1,1,190,3,2,random,"['n', 'm', 'z', 'x']",nmzxn,xx,False,LF-random,xz,True
203,2013-02-06 00:00:00,S01,x,x,0.234974145889,0,1,1,191,3,2,pattern,"['n', 'm', 'z', 'x']",nmzxn,zx,True,HF-pattern,zx,True
204,2013-02-06 00:00:00,S01,z,z,0.315016031265,0,1,1,192,3,2,random,"['n', 'm', 'z', 'x']",nmzxn,xz,False,LF-random,xx,False
205,2013-02-06 00:00:00,S01,n,n,0.391106128693,0,1,1,193,3,2,pattern,"['n', 'm', 'z', 'x']",nmzxn,xn,True,HF-pattern,xz,False
206,2013-02-06 00:00:00,S01,z,z,0.320960998535,0,1,1,194,3,2,random,"['n', 'm', 'z', 'x']",nmzxn,zz,False,LF-random,zn,True
207,2013-02-06 00:00:00,S01,m,m,0.36530995369,0,1,1,195,3,2,pattern,"['n', 'm', 'z', 'x']",nmzxn,nm,True,HF-pattern,nz,False
208,2013-02-06 00:00:00,S01,z,z,0.26380300521899996,0,1,1,196,3,2,random,"['n', 'm', 'z', 'x']",nmzxn,zz,False,LF-random,zm,True
209,2013-02-06 00:00:00,S01,z,z,0.309708118439,0,1,1,197,3,2,pattern,"['n', 'm', 'z', 'x']",nmzxn,mz,True,HF-pattern,mz,True
210,2013-02-06 00:00:00,S01,n,n,0.355232000351,0,1,1,198,3,2,random,"['n', 'm', 'z', 'x']",nmzxn,zn,False,LF-random,zz,False
211,2013-02-06 00:00:00,S01,x,x,0.301770925522,0,1,1,199,3,2,pattern,"['n', 'm', 'z', 'x']",nmzxn,zx,True,HF-pattern,zn,False
212,2013-02-06 00:00:00,S01,n,n,0.299535989761,0,1,1,200,3,2,random,"['n', 'm', 'z', 'x']",nmzxn,nn,False,LF-random,nx,True
213,2013-02-06 00:00:00,S01,n,n,0.29610991478,0,1,1,201,3,2,pattern,"['n', 'm', 'z', 'x']",nmzxn,xn,True,HF-pattern,xn,True
214,2013-02-06 00:00:00,S01,x,z,0.294263124466,0,1,0,202,3,2,random,"['n', 'm', 'z', 'x']",nmzxn,nx,False,LF-random,nn,False
216,2013-02-06 00:00:00,S01,m,m,0.298502922058,0,1,1,203,3,2,pattern,"['n', 'm', 'z', 'x']",nmzxn,nm,True,HF-pattern,nx,False
217,2013-02-06 00:00:00,S01,x,n,0.376101970673,0,1,0,204,3,2,random,"['n', 'm', 'z', 'x']",nmzxn,xx,False,LF-random,xm,True
219,2013-02-06 00:00:00,S01,z,z,0.37462401390100003,0,1,1,205,3,2,pattern,"['n', 'm', 'z', 'x']",nmzxn,mz,True,HF-pattern,mx,False
220,2013-02-06 00:00:00,S01,x,z,0.22485494613600002,0,1,0,206,3,2,random,"['n', 'm', 'z', 'x']",nmzxn,xx,False,LF-random,xz,True
222,2013-02-06 00:00:00,S01,x,x,0.32345819473299997,0,1,1,207,3,2,pattern,"['n', 'm', 'z', 'x']",nmzxn,zx,True,HF-pattern,zx,True
223,2013-02-06 00:00:00,S01,n,n,0.41534495353699996,0,1,1,208,3,2,random,"['n', 'm', 'z', 'x']",nmzxn,xn,True,HF-random,xx,False
224,2013-02-06 00:00:00,S01,n,n,0.29625415802,0,1,1,209,3,2,pattern,"['n', 'm', 'z', 'x']",nmzxn,xn,True,HF-pattern,xn,True
225,2013-02-06 00:00:00,S01,m,m,0.293348073959,0,1,1,210,3,2,random,"['n', 'm', 'z', 'x']",nmzxn,nm,True,HF-random,nn,False
226,2013-02-06 00:00:00,S01,m,m,0.323840856552,0,1,1,211,3,2,pattern,"['n', 'm', 'z', 'x']",nmzxn,nm,True,HF-pattern,nm,True
227,2013-02-06 00:00:00,S01,x,x,0.31955909729000004,0,1,1,212,3,2,random,"['n', 'm', 'z', 'x']",nmzxn,mx,False,LF-random,mm,False
228,2013-02-06 00:00:00,S01,z,x,0.18854379653900002,0,1,0,213,3,2,pattern,"['n', 'm', 'z', 'x']",nmzxn,mz,True,HF-pattern,mx,False
230,2013-02-06 00:00:00,S01,n,n,0.369431972504,0,1,1,214,3,2,random,"['n', 'm', 'z', 'x']",nmzxn,xn,True,HF-random,xz,False
231,2013-02-06 00:00:00,S01,x,x,0.316220998764,0,1,1,215,3,2,pattern,"['n', 'm', 'z', 'x']",nmzxn,zx,True,HF-pattern,zn,False
232,2013-02-06 00:00:00,S01,n,n,0.29626607894900003,0,1,1,216,3,2,random,"['n', 'm', 'z', 'x']",nmzxn,nn,False,LF-random,nx,True
233,2013-02-06 00:00:00,S01,n,n,0.294453859329,0,1,1,217,3,2,pattern,"['n', 'm', 'z', 'x']",nmzxn,xn,True,HF-pattern,xn,True
234,2013-02-06 00:00:00,S01,m,m,0.308136940002,0,1,1,218,3,2,random,"['n', 'm', 'z', 'x']",nmzxn,nm,True,HF-random,nn,False
235,2013-02-06 00:00:00,S01,m,m,0.321491956711,0,1,1,219,3,2,pattern,"['n', 'm', 'z', 'x']",nmzxn,nm,True,HF-pattern,nm,True
236,2013-02-06 00:00:00,S01,z,z,0.301930189133,0,1,1,220,3,2,random,"['n', 'm', 'z', 'x']",nmzxn,mz,True,HF-random,mm,False
237,2013-02-06 00:00:00,S01,z,z,0.330909013748,0,1,1,221,3,2,pattern,"['n', 'm', 'z', 'x']",nmzxn,mz,True,HF-pattern,mz,True
238,2013-02-06 00:00:00,S01,n,n,0.390735864639,0,1,1,222,3,2,random,"['n', 'm', 'z', 'x']",nmzxn,zn,False,LF-random,zz,False
239,2013-02-06 00:00:00,S01,x,x,0.320322036743,0,1,1,223,3,2,pattern,"['n', 'm', 'z', 'x']",nmzxn,zx,True,HF-pattern,zn,False
240,2013-02-06 00:00:00,S01,m,m,0.364723920822,0,1,1,224,3,2,random,"['n', 'm', 'z', 'x']",nmzxn,nm,True,HF-random,nx,False
241,2013-02-06 00:00:00,S01,n,n,0.327032804489,0,1,1,225,3,2,pattern,"['n', 'm', 'z', 'x']",nmzxn,xn,True,HF-pattern,xm,False
242,2013-02-06 00:00:00,S01,m,m,0.323271989822,0,1,1,226,3,2,random,"['n', 'm', 'z', 'x']",nmzxn,mm,False,LF-random,mn,True
243,2013-02-06 00:00:00,S01,m,m,0.351714134216,0,1,1,227,3,2,pattern,"['n', 'm', 'z', 'x']",nmzxn,nm,True,HF-pattern,nm,True
244,2013-02-06 00:00:00,S01,m,m,0.28270912170400003,0,1,1,228,3,2,random,"['n', 'm', 'z', 'x']",nmzxn,mm,False,LF-random,mm,True
245,2013-02-06 00:00:00,S01,z,z,0.31209897995,0,1,1,229,3,2,pattern,"['n', 'm', 'z', 'x']",nmzxn,mz,True,HF-pattern,mm,False
246,2013-02-06 00:00:00,S01,z,z,0.30965995788600004,0,1,1,230,3,2,random,"['n', 'm', 'z', 'x']",nmzxn,mz,True,HF-random,mz,True
247,2013-02-06 00:00:00,S01,x,x,0.354390144348,0,1,1,231,3,2,pattern,"['n', 'm', 'z', 'x']",nmzxn,zx,True,HF-pattern,zz,False
248,2013-02-06 00:00:00,S01,x,x,0.269752979279,0,1,1,232,3,2,random,"['n', 'm', 'z', 'x']",nmzxn,zx,True,HF-random,zx,True
249,2013-02-06 00:00:00,S01,n,n,0.363932132721,0,1,1,233,3,2,pattern,"['n', 'm', 'z', 'x']",nmzxn,xn,True,HF-pattern,xx,False
250,2013-02-06 00:00:00,S01,x,x,0.342700004578,0,1,1,234,3,2,random,"['n', 'm', 'z', 'x']",nmzxn,xx,False,LF-random,xn,True
251,2013-02-06 00:00:00,S01,m,m,0.369958877563,0,1,1,235,3,2,pattern,"['n', 'm', 'z', 'x']",nmzxn,nm,True,HF-pattern,nx,False
252,2013-02-06 00:00:00,S01,z,z,0.332740068436,0,1,1,236,3,2,random,"['n', 'm', 'z', 'x']",nmzxn,xz,False,LF-random,xm,False
253,2013-02-06 00:00:00,S01,z,z,0.280032873154,0,1,1,237,3,2,pattern,"['n', 'm', 'z', 'x']",nmzxn,mz,True,HF-pattern,mz,True
254,2013-02-06 00:00:00,S01,n,n,0.34217691421499996,0,1,1,238,3,2,random,"['n', 'm', 'z', 'x']",nmzxn,zn,False,LF-random,zz,False
255,2013-02-06 00:00:00,S01,x,x,0.273852109909,0,1,1,239,3,2,pattern,"['n', 'm', 'z', 'x']",nmzxn,zx,True,HF-pattern,zn,False
256,2013-02-06 00:00:00,S01,x,x,0.33670401573200004,0,1,1,240,3,2,random,"['n', 'm', 'z', 'x']",nmzxn,nx,False,LF-random,nx,True
257,2013-02-06 00:00:00,S01,n,n,0.353384017944,0,1,1,241,4,2,pattern,"['n', 'm', 'z', 'x']",nmzxn,xn,True,HF-pattern,xx,False
258,2013-02-06 00:00:00,S01,x,x,0.283927202225,0,1,1,242,4,2,random,"['n', 'm', 'z', 'x']",nmzxn,xx,False,LF-random,xn,True
259,2013-02-06 00:00:00,S01,m,m,0.314236164093,0,1,1,243,4,2,pattern,"['n', 'm', 'z', 'x']",nmzxn,nm,True,HF-pattern,nx,False
260,2013-02-06 00:00:00,S01,m,m,0.310226917267,0,1,1,244,4,2,random,"['n', 'm', 'z', 'x']",nmzxn,xm,False,LF-random,xm,True
261,2013-02-06 00:00:00,S01,z,z,0.371829986572,0,1,1,245,4,2,pattern,"['n', 'm', 'z', 'x']",nmzxn,mz,True,HF-pattern,mm,False
262,2013-02-06 00:00:00,S01,x,x,0.30186009407,0,1,1,246,4,2,random,"['n', 'm', 'z', 'x']",nmzxn,mx,False,LF-random,mz,False
263,2013-02-06 00:00:00,S01,x,x,0.299340009689,0,1,1,247,4,2,pattern,"['n', 'm', 'z', 'x']",nmzxn,zx,True,HF-pattern,zx,True
264,2013-02-06 00:00:00,S01,z,z,0.32870388031,0,1,1,248,4,2,random,"['n', 'm', 'z', 'x']",nmzxn,xz,False,LF-random,xx,False
265,2013-02-06 00:00:00,S01,n,n,0.32480812072799997,0,1,1,249,4,2,pattern,"['n', 'm', 'z', 'x']",nmzxn,xn,True,HF-pattern,xz,False
266,2013-02-06 00:00:00,S01,m,m,0.289236068726,0,1,1,250,4,2,random,"['n', 'm', 'z', 'x']",nmzxn,zm,False,LF-random,zn,False
267,2013-02-06 00:00:00,S01,m,m,0.334555149078,0,1,1,251,4,2,pattern,"['n', 'm', 'z', 'x']",nmzxn,nm,True,HF-pattern,nm,True
268,2013-02-06 00:00:00,S01,m,m,0.298578023911,0,1,1,252,4,2,random,"['n', 'm', 'z', 'x']",nmzxn,mm,False,LF-random,mm,True
269,2013-02-06 00:00:00,S01,z,z,0.327251911163,0,1,1,253,4,2,pattern,"['n', 'm', 'z', 'x']",nmzxn,mz,True,HF-pattern,mm,False
270,2013-02-06 00:00:00,S01,n,n,0.356320142746,0,1,1,254,4,2,random,"['n', 'm', 'z', 'x']",nmzxn,mn,False,LF-random,mz,False
271,2013-02-06 00:00:00,S01,x,x,0.254634857178,0,1,1,255,4,2,pattern,"['n', 'm', 'z', 'x']",nmzxn,zx,True,HF-pattern,zn,False
272,2013-02-06 00:00:00,S01,n,n,0.270417928696,0,1,1,256,4,2,random,"['n', 'm', 'z', 'x']",nmzxn,nn,False,LF-random,nx,True
273,2013-02-06 00:00:00,S01,n,n,0.30073094368000003,0,1,1,257,4,2,pattern,"['n', 'm', 'z', 'x']",nmzxn,xn,True,HF-pattern,xn,True
274,2013-02-06 00:00:00,S01,z,z,0.297991037369,0,1,1,258,4,2,random,"['n', 'm', 'z', 'x']",nmzxn,nz,False,LF-random,nn,False
275,2013-02-06 00:00:00,S01,m,m,0.327264070511,0,1,1,259,4,2,pattern,"['n', 'm', 'z', 'x']",nmzxn,nm,True,HF-pattern,nz,False
276,2013-02-06 00:00:00,S01,z,z,0.371572971344,0,1,1,260,4,2,random,"['n', 'm', 'z', 'x']",nmzxn,zz,False,LF-random,zm,True
277,2013-02-06 00:00:00,S01,z,z,0.269842863083,0,1,1,261,4,2,pattern,"['n', 'm', 'z', 'x']",nmzxn,mz,True,HF-pattern,mz,True
278,2013-02-06 00:00:00,S01,m,m,0.300153970718,0,1,1,262,4,2,random,"['n', 'm', 'z', 'x']",nmzxn,zm,False,LF-random,zz,False
279,2013-02-06 00:00:00,S01,x,x,0.441437005997,0,1,1,263,4,2,pattern,"['n', 'm', 'z', 'x']",nmzxn,zx,True,HF-pattern,zm,False
280,2013-02-06 00:00:00,S01,x,x,0.288942098618,0,1,1,264,4,2,random,"['n', 'm', 'z', 'x']",nmzxn,mx,False,LF-random,mx,True
281,2013-02-06 00:00:00,S01,n,n,0.318711042404,0,1,1,265,4,2,pattern,"['n', 'm', 'z', 'x']",nmzxn,xn,True,HF-pattern,xx,False
282,2013-02-06 00:00:00,S01,x,x,0.298700094223,0,1,1,266,4,2,random,"['n', 'm', 'z', 'x']",nmzxn,xx,False,LF-random,xn,True
283,2013-02-06 00:00:00,S01,m,m,0.392297029495,0,1,1,267,4,2,pattern,"['n', 'm', 'z', 'x']",nmzxn,nm,True,HF-pattern,nx,False
284,2013-02-06 00:00:00,S01,x,x,0.465399980545,0,1,1,268,4,2,random,"['n', 'm', 'z', 'x']",nmzxn,xx,False,LF-random,xm,True
285,2013-02-06 00:00:00,S01,z,z,0.32802987098700004,0,1,1,269,4,2,pattern,"['n', 'm', 'z', 'x']",nmzxn,mz,True,HF-pattern,mx,False
286,2013-02-06 00:00:00,S01,m,m,0.29216790199299997,0,1,1,270,4,2,random,"['n', 'm', 'z', 'x']",nmzxn,xm,False,LF-random,xz,False
287,2013-02-06 00:00:00,S01,x,x,0.258352041245,0,1,1,271,4,2,pattern,"['n', 'm', 'z', 'x']",nmzxn,zx,True,HF-pattern,zm,False
288,2013-02-06 00:00:00,S01,x,x,0.305055856705,0,1,1,272,4,2,random,"['n', 'm', 'z', 'x']",nmzxn,mx,False,LF-random,mx,True
289,2013-02-06 00:00:00,S01,n,n,0.382570028305,0,1,1,273,4,2,pattern,"['n', 'm', 'z', 'x']",nmzxn,xn,True,HF-pattern,xx,False
290,2013-02-06 00:00:00,S01,n,n,0.34375190734899996,0,1,1,274,4,2,random,"['n', 'm', 'z', 'x']",nmzxn,xn,True,HF-random,xn,True
291,2013-02-06 00:00:00,S01,m,m,0.260035037994,0,1,1,275,4,2,pattern,"['n', 'm', 'z', 'x']",nmzxn,nm,True,HF-pattern,nn,False
292,2013-02-06 00:00:00,S01,z,z,0.274920940399,0,1,1,276,4,2,random,"['n', 'm', 'z', 'x']",nmzxn,nz,False,LF-random,nm,False
293,2013-02-06 00:00:00,S01,z,z,0.321614980698,0,1,1,277,4,2,pattern,"['n', 'm', 'z', 'x']",nmzxn,mz,True,HF-pattern,mz,True
294,2013-02-06 00:00:00,S01,x,x,0.301984071732,0,1,1,278,4,2,random,"['n', 'm', 'z', 'x']",nmzxn,zx,True,HF-random,zz,False
295,2013-02-06 00:00:00,S01,x,x,0.283269882202,0,1,1,279,4,2,pattern,"['n', 'm', 'z', 'x']",nmzxn,zx,True,HF-pattern,zx,True
296,2013-02-06 00:00:00,S01,n,n,0.296992063522,0,1,1,280,4,2,random,"['n', 'm', 'z', 'x']",nmzxn,xn,True,HF-random,xx,False
297,2013-02-06 00:00:00,S01,n,n,0.294371128082,0,1,1,281,4,2,pattern,"['n', 'm', 'z', 'x']",nmzxn,xn,True,HF-pattern,xn,True
298,2013-02-06 00:00:00,S01,m,m,0.260520935059,0,1,1,282,4,2,random,"['n', 'm', 'z', 'x']",nmzxn,nm,True,HF-random,nn,False
299,2013-02-06 00:00:00,S01,m,m,0.291250944138,0,1,1,283,4,2,pattern,"['n', 'm', 'z', 'x']",nmzxn,nm,True,HF-pattern,nm,True
300,2013-02-06 00:00:00,S01,n,n,0.35352015495300004,0,1,1,284,4,2,random,"['n', 'm', 'z', 'x']",nmzxn,mn,False,LF-random,mm,False
301,2013-02-06 00:00:00,S01,z,z,0.332288980484,0,1,1,285,4,2,pattern,"['n', 'm', 'z', 'x']",nmzxn,mz,True,HF-pattern,mn,False
302,2013-02-06 00:00:00,S01,n,n,0.264282941818,0,1,1,286,4,2,random,"['n', 'm', 'z', 'x']",nmzxn,nn,False,LF-random,nz,True
303,2013-02-06 00:00:00,S01,x,x,0.374781131744,0,1,1,287,4,2,pattern,"['n', 'm', 'z', 'x']",nmzxn,zx,True,HF-pattern,zn,False
304,2013-02-06 00:00:00,S01,z,z,0.321084976196,0,1,1,288,4,2,random,"['n', 'm', 'z', 'x']",nmzxn,nz,False,LF-random,nx,False
305,2013-02-06 00:00:00,S01,n,n,0.301584005356,0,1,1,289,4,2,pattern,"['n', 'm', 'z', 'x']",nmzxn,xn,True,HF-pattern,xz,False
306,2013-02-06 00:00:00,S01,n,n,0.330613851547,0,1,1,290,4,2,random,"['n', 'm', 'z', 'x']",nmzxn,zn,False,LF-random,zn,True
307,2013-02-06 00:00:00,S01,m,m,0.26245617866500004,0,1,1,291,4,2,pattern,"['n', 'm', 'z', 'x']",nmzxn,nm,True,HF-pattern,nn,False
308,2013-02-06 00:00:00,S01,m,m,0.35711288452100004,0,1,1,292,4,2,random,"['n', 'm', 'z', 'x']",nmzxn,nm,True,HF-random,nm,True
309,2013-02-06 00:00:00,S01,z,z,0.35261797905000003,0,1,1,293,4,2,pattern,"['n', 'm', 'z', 'x']",nmzxn,mz,True,HF-pattern,mm,False
310,2013-02-06 00:00:00,S01,n,x,0.250988960266,0,1,0,294,4,2,random,"['n', 'm', 'z', 'x']",nmzxn,mn,False,LF-random,mz,False
312,2013-02-06 00:00:00,S01,x,x,0.334868192673,0,1,1,295,4,2,pattern,"['n', 'm', 'z', 'x']",nmzxn,zx,True,HF-pattern,zn,False
313,2013-02-06 00:00:00,S01,n,n,0.315122127533,0,1,1,296,4,2,random,"['n', 'm', 'z', 'x']",nmzxn,nn,False,LF-random,nx,True
314,2013-02-06 00:00:00,S01,n,n,0.263315200806,0,1,1,297,4,2,pattern,"['n', 'm', 'z', 'x']",nmzxn,xn,True,HF-pattern,xn,True
315,2013-02-06 00:00:00,S01,m,m,0.294220924377,0,1,1,298,4,2,random,"['n', 'm', 'z', 'x']",nmzxn,nm,True,HF-random,nn,False
316,2013-02-06 00:00:00,S01,m,m,0.308668851852,0,1,1,299,4,2,pattern,"['n', 'm', 'z', 'x']",nmzxn,nm,True,HF-pattern,nm,True
317,2013-02-06 00:00:00,S01,n,n,0.385142087936,0,1,1,300,4,2,random,"['n', 'm', 'z', 'x']",nmzxn,mn,False,LF-random,mm,False
318,2013-02-06 00:00:00,S01,z,z,0.41111588478100003,0,1,1,301,4,2,pattern,"['n', 'm', 'z', 'x']",nmzxn,mz,True,HF-pattern,mn,False
319,2013-02-06 00:00:00,S01,x,n,0.307192087173,0,1,0,302,4,2,random,"['n', 'm', 'z', 'x']",nmzxn,nx,False,LF-random,nz,False
321,2013-02-06 00:00:00,S01,x,x,0.43061089515699996,0,1,1,303,4,2,pattern,"['n', 'm', 'z', 'x']",nmzxn,zx,True,HF-pattern,zx,True
322,2013-02-06 00:00:00,S01,z,z,0.34284305572499996,0,1,1,304,4,2,random,"['n', 'm', 'z', 'x']",nmzxn,xz,False,LF-random,xx,False
323,2013-02-06 00:00:00,S01,n,n,0.322570085526,0,1,1,305,4,2,pattern,"['n', 'm', 'z', 'x']",nmzxn,xn,True,HF-pattern,xz,False
324,2013-02-06 00:00:00,S01,n,n,0.302522182465,0,1,1,306,4,2,random,"['n', 'm', 'z', 'x']",nmzxn,zn,False,LF-random,zn,True
325,2013-02-06 00:00:00,S01,m,m,0.28408503532400003,0,1,1,307,4,2,pattern,"['n', 'm', 'z', 'x']",nmzxn,nm,True,HF-pattern,nn,False
326,2013-02-06 00:00:00,S01,m,m,0.329385995865,0,1,1,308,4,2,random,"['n', 'm', 'z', 'x']",nmzxn,nm,True,HF-random,nm,True
327,2013-02-06 00:00:00,S01,z,z,0.310321092606,0,1,1,309,4,2,pattern,"['n', 'm', 'z', 'x']",nmzxn,mz,True,HF-pattern,mm,False
328,2013-02-06 00:00:00,S01,x,x,0.306962966919,0,1,1,310,4,2,random,"['n', 'm', 'z', 'x']",nmzxn,mx,False,LF-random,mz,False
329,2013-02-06 00:00:00,S01,x,x,0.27248501777600004,0,1,1,311,4,2,pattern,"['n', 'm', 'z', 'x']",nmzxn,zx,True,HF-pattern,zx,True
330,2013-02-06 00:00:00,S01,m,m,0.33515381813,0,1,1,312,4,2,random,"['n', 'm', 'z', 'x']",nmzxn,xm,False,LF-random,xx,False
331,2013-02-06 00:00:00,S01,n,n,0.282861948013,0,1,1,313,4,2,pattern,"['n', 'm', 'z', 'x']",nmzxn,xn,True,HF-pattern,xm,False
332,2013-02-06 00:00:00,S01,n,n,0.408571004868,0,1,1,314,4,2,random,"['n', 'm', 'z', 'x']",nmzxn,mn,False,LF-random,mn,True
333,2013-02-06 00:00:00,S01,m,m,0.35368299484300003,0,1,1,315,4,2,pattern,"['n', 'm', 'z', 'x']",nmzxn,nm,True,HF-pattern,nn,False
334,2013-02-06 00:00:00,S01,n,n,0.300572872162,0,1,1,316,4,2,random,"['n', 'm', 'z', 'x']",nmzxn,nn,False,LF-random,nm,True
335,2013-02-06 00:00:00,S01,z,z,0.40939784049999994,0,1,1,317,4,2,pattern,"['n', 'm', 'z', 'x']",nmzxn,mz,True,HF-pattern,mn,False
336,2013-02-06 00:00:00,S01,z,z,0.29040384292599997,0,1,1,318,4,2,random,"['n', 'm', 'z', 'x']",nmzxn,nz,False,LF-random,nz,True
337,2013-02-06 00:00:00,S01,x,x,0.320281982422,0,1,1,319,4,2,pattern,"['n', 'm', 'z', 'x']",nmzxn,zx,True,HF-pattern,zz,False
338,2013-02-06 00:00:00,S01,n,n,0.380742073059,0,1,1,320,4,2,random,"['n', 'm', 'z', 'x']",nmzxn,zn,False,LF-random,zx,False
339,2013-02-06 00:00:00,S01,n,n,0.326261997223,0,1,1,321,5,3,pattern,"['n', 'm', 'z', 'x']",nmzxn,xn,True,HF-pattern,xn,True
340,2013-02-06 00:00:00,S01,x,z,0.291095018387,0,1,0,322,5,3,random,"['n', 'm', 'z', 'x']",nmzxn,nx,False,LF-random,nn,False
342,2013-02-06 00:00:00,S01,m,m,0.310839891434,0,1,1,323,5,3,pattern,"['n', 'm', 'z', 'x']",nmzxn,nm,True,HF-pattern,nx,False
343,2013-02-06 00:00:00,S01,m,m,0.35653185844400004,0,1,1,324,5,3,random,"['n', 'm', 'z', 'x']",nmzxn,xm,False,LF-random,xm,True
344,2013-02-06 00:00:00,S01,z,z,0.31894207000700003,0,1,1,325,5,3,pattern,"['n', 'm', 'z', 'x']",nmzxn,mz,True,HF-pattern,mm,False
345,2013-02-06 00:00:00,S01,x,x,0.283743858337,0,1,1,326,5,3,random,"['n', 'm', 'z', 'x']",nmzxn,mx,False,LF-random,mz,False
346,2013-02-06 00:00:00,S01,x,x,0.329107999802,0,1,1,327,5,3,pattern,"['n', 'm', 'z', 'x']",nmzxn,zx,True,HF-pattern,zx,True
347,2013-02-06 00:00:00,S01,n,n,0.278146982193,0,1,1,328,5,3,random,"['n', 'm', 'z', 'x']",nmzxn,xn,True,HF-random,xx,False
348,2013-02-06 00:00:00,S01,n,n,0.419981956482,0,1,1,329,5,3,pattern,"['n', 'm', 'z', 'x']",nmzxn,xn,True,HF-pattern,xn,True
349,2013-02-06 00:00:00,S01,x,x,0.36489009857199994,0,1,1,330,5,3,random,"['n', 'm', 'z', 'x']",nmzxn,nx,False,LF-random,nn,False
350,2013-02-06 00:00:00,S01,m,m,0.32651400566100003,0,1,1,331,5,3,pattern,"['n', 'm', 'z', 'x']",nmzxn,nm,True,HF-pattern,nx,False
351,2013-02-06 00:00:00,S01,x,x,0.435515880585,0,1,1,332,5,3,random,"['n', 'm', 'z', 'x']",nmzxn,xx,False,LF-random,xm,True
352,2013-02-06 00:00:00,S01,z,z,0.29837012291,0,1,1,333,5,3,pattern,"['n', 'm', 'z', 'x']",nmzxn,mz,True,HF-pattern,mx,False
353,2013-02-06 00:00:00,S01,z,z,0.31203985214200003,0,1,1,334,5,3,random,"['n', 'm', 'z', 'x']",nmzxn,xz,False,LF-random,xz,True
354,2013-02-06 00:00:00,S01,x,x,0.244948863983,0,1,1,335,5,3,pattern,"['n', 'm', 'z', 'x']",nmzxn,zx,True,HF-pattern,zz,False
355,2013-02-06 00:00:00,S01,n,n,0.293061971664,0,1,1,336,5,3,random,"['n', 'm', 'z', 'x']",nmzxn,zn,False,LF-random,zx,False
356,2013-02-06 00:00:00,S01,n,n,0.258940935135,0,1,1,337,5,3,pattern,"['n', 'm', 'z', 'x']",nmzxn,xn,True,HF-pattern,xn,True
357,2013-02-06 00:00:00,S01,x,x,0.43378090858499996,0,1,1,338,5,3,random,"['n', 'm', 'z', 'x']",nmzxn,nx,False,LF-random,nn,False
358,2013-02-06 00:00:00,S01,m,m,0.297581911087,0,1,1,339,5,3,pattern,"['n', 'm', 'z', 'x']",nmzxn,nm,True,HF-pattern,nx,False
359,2013-02-06 00:00:00,S01,n,n,0.326456069946,0,1,1,340,5,3,random,"['n', 'm', 'z', 'x']",nmzxn,xn,True,HF-random,xm,False
360,2013-02-06 00:00:00,S01,z,x,0.275094032288,0,1,0,341,5,3,pattern,"['n', 'm', 'z', 'x']",nmzxn,mz,True,HF-pattern,mn,False
362,2013-02-06 00:00:00,S01,z,z,0.263936042786,0,1,1,342,5,3,random,"['n', 'm', 'z', 'x']",nmzxn,nz,False,LF-random,nz,True
363,2013-02-06 00:00:00,S01,x,x,0.310394048691,0,1,1,343,5,3,pattern,"['n', 'm', 'z', 'x']",nmzxn,zx,True,HF-pattern,zz,False
364,2013-02-06 00:00:00,S01,m,n,0.291233062744,0,1,0,344,5,3,random,"['n', 'm', 'z', 'x']",nmzxn,zm,False,LF-random,zx,False
366,2013-02-06 00:00:00,S01,n,n,0.29960989952100003,0,1,1,345,5,3,pattern,"['n', 'm', 'z', 'x']",nmzxn,xn,True,HF-pattern,xm,False
367,2013-02-06 00:00:00,S01,x,x,0.39261507988000005,0,1,1,346,5,3,random,"['n', 'm', 'z', 'x']",nmzxn,mx,False,LF-random,mn,False
368,2013-02-06 00:00:00,S01,m,m,0.354532003403,0,1,1,347,5,3,pattern,"['n', 'm', 'z', 'x']",nmzxn,nm,True,HF-pattern,nx,False
369,2013-02-06 00:00:00,S01,z,z,0.429366111755,0,1,1,348,5,3,random,"['n', 'm', 'z', 'x']",nmzxn,xz,False,LF-random,xm,False
370,2013-02-06 00:00:00,S01,z,z,0.293601036072,0,1,1,349,5,3,pattern,"['n', 'm', 'z', 'x']",nmzxn,mz,True,HF-pattern,mz,True
371,2013-02-06 00:00:00,S01,z,z,0.307348012924,0,1,1,350,5,3,random,"['n', 'm', 'z', 'x']",nmzxn,zz,False,LF-random,zz,True
372,2013-02-06 00:00:00,S01,x,z,0.208660125732,0,1,0,351,5,3,pattern,"['n', 'm', 'z', 'x']",nmzxn,zx,True,HF-pattern,zz,False
374,2013-02-06 00:00:00,S01,n,n,0.278612136841,0,1,1,352,5,3,random,"['n', 'm', 'z', 'x']",nmzxn,zn,False,LF-random,zx,False
375,2013-02-06 00:00:00,S01,n,n,0.325217008591,0,1,1,353,5,3,pattern,"['n', 'm', 'z', 'x']",nmzxn,xn,True,HF-pattern,xn,True
376,2013-02-06 00:00:00,S01,m,m,0.25740814209,0,1,1,354,5,3,random,"['n', 'm', 'z', 'x']",nmzxn,nm,True,HF-random,nn,False
377,2013-02-06 00:00:00,S01,m,m,0.272871017456,0,1,1,355,5,3,pattern,"['n', 'm', 'z', 'x']",nmzxn,nm,True,HF-pattern,nm,True
378,2013-02-06 00:00:00,S01,m,m,0.25485801696800003,0,1,1,356,5,3,random,"['n', 'm', 'z', 'x']",nmzxn,mm,False,LF-random,mm,True
379,2013-02-06 00:00:00,S01,z,z,0.302604913712,0,1,1,357,5,3,pattern,"['n', 'm', 'z', 'x']",nmzxn,mz,True,HF-pattern,mm,False
380,2013-02-06 00:00:00,S01,z,z,0.235608816147,0,1,1,358,5,3,random,"['n', 'm', 'z', 'x']",nmzxn,mz,True,HF-random,mz,True
381,2013-02-06 00:00:00,S01,x,x,0.331569910049,0,1,1,359,5,3,pattern,"['n', 'm', 'z', 'x']",nmzxn,zx,True,HF-pattern,zz,False
382,2013-02-06 00:00:00,S01,z,x,0.311226129532,0,1,0,360,5,3,random,"['n', 'm', 'z', 'x']",nmzxn,zz,False,LF-random,zx,True
384,2013-02-06 00:00:00,S01,n,n,0.343058824539,0,1,1,361,5,3,pattern,"['n', 'm', 'z', 'x']",nmzxn,xn,True,HF-pattern,xz,False
385,2013-02-06 00:00:00,S01,n,n,0.242436885834,0,1,1,362,5,3,random,"['n', 'm', 'z', 'x']",nmzxn,zn,False,LF-random,zn,True
386,2013-02-06 00:00:00,S01,m,m,0.27471899986299997,0,1,1,363,5,3,pattern,"['n', 'm', 'z', 'x']",nmzxn,nm,True,HF-pattern,nn,False
387,2013-02-06 00:00:00,S01,x,m,0.14508700370799998,0,1,0,364,5,3,random,"['n', 'm', 'z', 'x']",nmzxn,nx,False,LF-random,nm,False
389,2013-02-06 00:00:00,S01,z,z,0.34610414505000003,0,1,1,365,5,3,pattern,"['n', 'm', 'z', 'x']",nmzxn,mz,True,HF-pattern,mx,False
390,2013-02-06 00:00:00,S01,n,x,0.43721699714699996,0,1,0,366,5,3,random,"['n', 'm', 'z', 'x']",nmzxn,xn,True,HF-random,xz,False
392,2013-02-06 00:00:00,S01,x,x,0.315939903259,0,1,1,367,5,3,pattern,"['n', 'm', 'z', 'x']",nmzxn,zx,True,HF-pattern,zn,False
393,2013-02-06 00:00:00,S01,n,n,0.296207904816,0,1,1,368,5,3,random,"['n', 'm', 'z', 'x']",nmzxn,nn,False,LF-random,nx,True
394,2013-02-06 00:00:00,S01,n,n,0.294395923615,0,1,1,369,5,3,pattern,"['n', 'm', 'z', 'x']",nmzxn,xn,True,HF-pattern,xn,True
395,2013-02-06 00:00:00,S01,x,x,0.467622041702,0,1,1,370,5,3,random,"['n', 'm', 'z', 'x']",nmzxn,nx,False,LF-random,nn,False
396,2013-02-06 00:00:00,S01,m,m,0.34608316421499996,0,1,1,371,5,3,pattern,"['n', 'm', 'z', 'x']",nmzxn,nm,True,HF-pattern,nx,False
397,2013-02-06 00:00:00,S01,n,m,0.197797060013,0,1,0,372,5,3,random,"['n', 'm', 'z', 'x']",nmzxn,xn,True,HF-random,xm,False
399,2013-02-06 00:00:00,S01,z,z,0.34995913505599996,0,1,1,373,5,3,pattern,"['n', 'm', 'z', 'x']",nmzxn,mz,True,HF-pattern,mn,False
400,2013-02-06 00:00:00,S01,z,z,0.328494787216,0,1,1,374,5,3,random,"['n', 'm', 'z', 'x']",nmzxn,nz,False,LF-random,nz,True
401,2013-02-06 00:00:00,S01,x,x,0.357425928116,0,1,1,375,5,3,pattern,"['n', 'm', 'z', 'x']",nmzxn,zx,True,HF-pattern,zz,False
402,2013-02-06 00:00:00,S01,n,n,0.288125038147,0,1,1,376,5,3,random,"['n', 'm', 'z', 'x']",nmzxn,zn,False,LF-random,zx,False
403,2013-02-06 00:00:00,S01,n,n,0.30227804184,0,1,1,377,5,3,pattern,"['n', 'm', 'z', 'x']",nmzxn,xn,True,HF-pattern,xn,True
404,2013-02-06 00:00:00,S01,n,n,0.36339807510399996,0,1,1,378,5,3,random,"['n', 'm', 'z', 'x']",nmzxn,nn,False,LF-random,nn,True
405,2013-02-06 00:00:00,S01,m,m,0.294467926025,0,1,1,379,5,3,pattern,"['n', 'm', 'z', 'x']",nmzxn,nm,True,HF-pattern,nn,False
406,2013-02-06 00:00:00,S01,z,z,0.324140787125,0,1,1,380,5,3,random,"['n', 'm', 'z', 'x']",nmzxn,nz,False,LF-random,nm,False
407,2013-02-06 00:00:00,S01,z,z,0.38429212570200005,0,1,1,381,5,3,pattern,"['n', 'm', 'z', 'x']",nmzxn,mz,True,HF-pattern,mz,True
408,2013-02-06 00:00:00,S01,z,z,0.186223983765,0,1,1,382,5,3,random,"['n', 'm', 'z', 'x']",nmzxn,zz,False,LF-random,zz,True
409,2013-02-06 00:00:00,S01,x,x,0.331780910492,0,1,1,383,5,3,pattern,"['n', 'm', 'z', 'x']",nmzxn,zx,True,HF-pattern,zz,False
410,2013-02-06 00:00:00,S01,x,x,0.29602098465,0,1,1,384,5,3,random,"['n', 'm', 'z', 'x']",nmzxn,zx,True,HF-random,zx,True
411,2013-02-06 00:00:00,S01,n,n,0.30925488472,0,1,1,385,5,3,pattern,"['n', 'm', 'z', 'x']",nmzxn,xn,True,HF-pattern,xx,False
412,2013-02-06 00:00:00,S01,m,m,0.33893203735399996,0,1,1,386,5,3,random,"['n', 'm', 'z', 'x']",nmzxn,xm,False,LF-random,xn,False
413,2013-02-06 00:00:00,S01,m,m,0.222507953644,0,1,1,387,5,3,pattern,"['n', 'm', 'z', 'x']",nmzxn,nm,True,HF-pattern,nm,True
414,2013-02-06 00:00:00,S01,x,x,0.335167884827,0,1,1,388,5,3,random,"['n', 'm', 'z', 'x']",nmzxn,mx,False,LF-random,mm,False
415,2013-02-06 00:00:00,S01,z,z,0.330862045288,0,1,1,389,5,3,pattern,"['n', 'm', 'z', 'x']",nmzxn,mz,True,HF-pattern,mx,False
416,2013-02-06 00:00:00,S01,m,m,0.37461018562299997,0,1,1,390,5,3,random,"['n', 'm', 'z', 'x']",nmzxn,xm,False,LF-random,xz,False
417,2013-02-06 00:00:00,S01,x,x,0.384594917297,0,1,1,391,5,3,pattern,"['n', 'm', 'z', 'x']",nmzxn,zx,True,HF-pattern,zm,False
418,2013-02-06 00:00:00,S01,x,x,0.282763004303,0,1,1,392,5,3,random,"['n', 'm', 'z', 'x']",nmzxn,mx,False,LF-random,mx,True
419,2013-02-06 00:00:00,S01,n,x,0.21628403663600002,0,1,0,393,5,3,pattern,"['n', 'm', 'z', 'x']",nmzxn,xn,True,HF-pattern,xx,False
421,2013-02-06 00:00:00,S01,x,x,0.284960031509,0,1,1,394,5,3,random,"['n', 'm', 'z', 'x']",nmzxn,xx,False,LF-random,xn,True
422,2013-02-06 00:00:00,S01,m,m,0.36247897148100006,0,1,1,395,5,3,pattern,"['n', 'm', 'z', 'x']",nmzxn,nm,True,HF-pattern,nx,False
423,2013-02-06 00:00:00,S01,z,z,0.277808904648,0,1,1,396,5,3,random,"['n', 'm', 'z', 'x']",nmzxn,xz,False,LF-random,xm,False
424,2013-02-06 00:00:00,S01,z,z,0.260321855545,0,1,1,397,5,3,pattern,"['n', 'm', 'z', 'x']",nmzxn,mz,True,HF-pattern,mz,True
425,2013-02-06 00:00:00,S01,m,m,0.323199987411,0,1,1,398,5,3,random,"['n', 'm', 'z', 'x']",nmzxn,zm,False,LF-random,zz,False
426,2013-02-06 00:00:00,S01,x,x,0.288067102432,0,1,1,399,5,3,pattern,"['n', 'm', 'z', 'x']",nmzxn,zx,True,HF-pattern,zm,False
427,2013-02-06 00:00:00,S01,m,m,0.41317081451399995,0,1,1,400,5,3,random,"['n', 'm', 'z', 'x']",nmzxn,mm,False,LF-random,mx,True
428,2013-02-06 00:00:00,S01,n,n,0.37630581855800005,0,1,1,401,6,3,pattern,"['n', 'm', 'z', 'x']",nmzxn,xn,True,HF-pattern,xm,False
429,2013-02-06 00:00:00,S01,z,z,0.353909015656,0,1,1,402,6,3,random,"['n', 'm', 'z', 'x']",nmzxn,mz,True,HF-random,mn,False
430,2013-02-06 00:00:00,S01,m,m,0.34957289695699995,0,1,1,403,6,3,pattern,"['n', 'm', 'z', 'x']",nmzxn,nm,True,HF-pattern,nz,False
431,2013-02-06 00:00:00,S01,z,z,0.24802994728100003,0,1,1,404,6,3,random,"['n', 'm', 'z', 'x']",nmzxn,zz,False,LF-random,zm,True
432,2013-02-06 00:00:00,S01,z,z,0.295791864395,0,1,1,405,6,3,pattern,"['n', 'm', 'z', 'x']",nmzxn,mz,True,HF-pattern,mz,True
433,2013-02-06 00:00:00,S01,n,n,0.421010971069,0,1,1,406,6,3,random,"['n', 'm', 'z', 'x']",nmzxn,zn,False,LF-random,zz,False
434,2013-02-06 00:00:00,S01,x,x,0.349879026413,0,1,1,407,6,3,pattern,"['n', 'm', 'z', 'x']",nmzxn,zx,True,HF-pattern,zn,False
435,2013-02-06 00:00:00,S01,z,z,0.360389947891,0,1,1,408,6,3,random,"['n', 'm', 'z', 'x']",nmzxn,nz,False,LF-random,nx,False
436,2013-02-06 00:00:00,S01,n,n,0.387781143188,0,1,1,409,6,3,pattern,"['n', 'm', 'z', 'x']",nmzxn,xn,True,HF-pattern,xz,False
437,2013-02-06 00:00:00,S01,x,x,0.41286611556999997,0,1,1,410,6,3,random,"['n', 'm', 'z', 'x']",nmzxn,zx,True,HF-random,zn,False
438,2013-02-06 00:00:00,S01,m,m,0.310365915298,0,1,1,411,6,3,pattern,"['n', 'm', 'z', 'x']",nmzxn,nm,True,HF-pattern,nx,False
439,2013-02-06 00:00:00,S01,z,z,0.291077136993,0,1,1,412,6,3,random,"['n', 'm', 'z', 'x']",nmzxn,xz,False,LF-random,xm,False
440,2013-02-06 00:00:00,S01,z,z,0.241220235825,0,1,1,413,6,3,pattern,"['n', 'm', 'z', 'x']",nmzxn,mz,True,HF-pattern,mz,True
441,2013-02-06 00:00:00,S01,n,n,0.30511498451200003,0,1,1,414,6,3,random,"['n', 'm', 'z', 'x']",nmzxn,zn,False,LF-random,zz,False
442,2013-02-06 00:00:00,S01,x,x,0.366363048553,0,1,1,415,6,3,pattern,"['n', 'm', 'z', 'x']",nmzxn,zx,True,HF-pattern,zn,False
443,2013-02-06 00:00:00,S01,x,x,0.312563896179,0,1,1,416,6,3,random,"['n', 'm', 'z', 'x']",nmzxn,nx,False,LF-random,nx,True
444,2013-02-06 00:00:00,S01,n,n,0.293632030487,0,1,1,417,6,3,pattern,"['n', 'm', 'z', 'x']",nmzxn,xn,True,HF-pattern,xx,False
445,2013-02-06 00:00:00,S01,m,m,0.275557994843,0,1,1,418,6,3,random,"['n', 'm', 'z', 'x']",nmzxn,xm,False,LF-random,xn,False
446,2013-02-06 00:00:00,S01,m,m,0.33746004104599997,0,1,1,419,6,3,pattern,"['n', 'm', 'z', 'x']",nmzxn,nm,True,HF-pattern,nm,True
447,2013-02-06 00:00:00,S01,n,n,0.38181304931599996,0,1,1,420,6,3,random,"['n', 'm', 'z', 'x']",nmzxn,mn,False,LF-random,mm,False
448,2013-02-06 00:00:00,S01,z,z,0.35881614685099994,0,1,1,421,6,3,pattern,"['n', 'm', 'z', 'x']",nmzxn,mz,True,HF-pattern,mn,False
449,2013-02-06 00:00:00,S01,x,z,0.22644996643100002,0,1,0,422,6,3,random,"['n', 'm', 'z', 'x']",nmzxn,nx,False,LF-random,nz,False
451,2013-02-06 00:00:00,S01,x,x,0.32648801803599997,0,1,1,423,6,3,pattern,"['n', 'm', 'z', 'x']",nmzxn,zx,True,HF-pattern,zx,True
452,2013-02-06 00:00:00,S01,x,x,0.33893084526100004,0,1,1,424,6,3,random,"['n', 'm', 'z', 'x']",nmzxn,xx,False,LF-random,xx,True
453,2013-02-06 00:00:00,S01,n,n,0.33433389663699997,0,1,1,425,6,3,pattern,"['n', 'm', 'z', 'x']",nmzxn,xn,True,HF-pattern,xx,False
454,2013-02-06 00:00:00,S01,m,m,0.282310009003,0,1,1,426,6,3,random,"['n', 'm', 'z', 'x']",nmzxn,xm,False,LF-random,xn,False
455,2013-02-06 00:00:00,S01,m,m,0.311515808105,0,1,1,427,6,3,pattern,"['n', 'm', 'z', 'x']",nmzxn,nm,True,HF-pattern,nm,True
456,2013-02-06 00:00:00,S01,z,z,0.325028896332,0,1,1,428,6,3,random,"['n', 'm', 'z', 'x']",nmzxn,mz,True,HF-random,mm,False
457,2013-02-06 00:00:00,S01,z,z,0.20908498764000003,0,1,1,429,6,3,pattern,"['n', 'm', 'z', 'x']",nmzxn,mz,True,HF-pattern,mz,True
458,2013-02-06 00:00:00,S01,x,x,0.306973934174,0,1,1,430,6,3,random,"['n', 'm', 'z', 'x']",nmzxn,zx,True,HF-random,zz,False
459,2013-02-06 00:00:00,S01,x,x,0.319798946381,0,1,1,431,6,3,pattern,"['n', 'm', 'z', 'x']",nmzxn,zx,True,HF-pattern,zx,True
460,2013-02-06 00:00:00,S01,x,x,0.332468986511,0,1,1,432,6,3,random,"['n', 'm', 'z', 'x']",nmzxn,xx,False,LF-random,xx,True
461,2013-02-06 00:00:00,S01,n,m,0.32806491851799996,0,1,0,433,6,3,pattern,"['n', 'm', 'z', 'x']",nmzxn,xn,True,HF-pattern,xx,False
463,2013-02-06 00:00:00,S01,z,z,0.352231025696,0,1,1,434,6,3,random,"['n', 'm', 'z', 'x']",nmzxn,xz,False,LF-random,xn,False
464,2013-02-06 00:00:00,S01,m,m,0.362811088562,0,1,1,435,6,3,pattern,"['n', 'm', 'z', 'x']",nmzxn,nm,True,HF-pattern,nz,False
465,2013-02-06 00:00:00,S01,z,z,0.277529001236,0,1,1,436,6,3,random,"['n', 'm', 'z', 'x']",nmzxn,zz,False,LF-random,zm,True
466,2013-02-06 00:00:00,S01,z,z,0.34011697769199994,0,1,1,437,6,3,pattern,"['n', 'm', 'z', 'x']",nmzxn,mz,True,HF-pattern,mz,True
467,2013-02-06 00:00:00,S01,n,z,0.20763301849399998,0,1,0,438,6,3,random,"['n', 'm', 'z', 'x']",nmzxn,zn,False,LF-random,zz,False
469,2013-02-06 00:00:00,S01,x,x,0.310323953629,0,1,1,439,6,3,pattern,"['n', 'm', 'z', 'x']",nmzxn,zx,True,HF-pattern,zn,False
470,2013-02-06 00:00:00,S01,m,m,0.339795827866,0,1,1,440,6,3,random,"['n', 'm', 'z', 'x']",nmzxn,nm,True,HF-random,nx,False
471,2013-02-06 00:00:00,S01,n,x,0.287685871124,0,1,0,441,6,3,pattern,"['n', 'm', 'z', 'x']",nmzxn,xn,True,HF-pattern,xm,False
473,2013-02-06 00:00:00,S01,z,z,0.354959011078,0,1,1,442,6,3,random,"['n', 'm', 'z', 'x']",nmzxn,mz,True,HF-random,mn,False
474,2013-02-06 00:00:00,S01,m,m,0.349306821823,0,1,1,443,6,3,pattern,"['n', 'm', 'z', 'x']",nmzxn,nm,True,HF-pattern,nz,False
475,2013-02-06 00:00:00,S01,n,x,0.312865018845,0,1,0,444,6,3,random,"['n', 'm', 'z', 'x']",nmzxn,zn,False,LF-random,zm,False
477,2013-02-06 00:00:00,S01,z,z,0.32336997985800003,0,1,1,445,6,3,pattern,"['n', 'm', 'z', 'x']",nmzxn,mz,True,HF-pattern,mn,False
478,2013-02-06 00:00:00,S01,n,n,0.27207708358800003,0,1,1,446,6,3,random,"['n', 'm', 'z', 'x']",nmzxn,nn,False,LF-random,nz,True
479,2013-02-06 00:00:00,S01,x,x,0.35047292709399996,0,1,1,447,6,3,pattern,"['n', 'm', 'z', 'x']",nmzxn,zx,True,HF-pattern,zn,False
480,2013-02-06 00:00:00,S01,x,x,0.313794851303,0,1,1,448,6,3,random,"['n', 'm', 'z', 'x']",nmzxn,nx,False,LF-random,nx,True
481,2013-02-06 00:00:00,S01,n,n,0.310091018677,0,1,1,449,6,3,pattern,"['n', 'm', 'z', 'x']",nmzxn,xn,True,HF-pattern,xx,False
482,2013-02-06 00:00:00,S01,x,x,0.307255983353,0,1,1,450,6,3,random,"['n', 'm', 'z', 'x']",nmzxn,xx,False,LF-random,xn,True
483,2013-02-06 00:00:00,S01,m,n,0.272225141525,0,1,0,451,6,3,pattern,"['n', 'm', 'z', 'x']",nmzxn,nm,True,HF-pattern,nx,False
485,2013-02-06 00:00:00,S01,z,z,0.343981981277,0,1,1,452,6,3,random,"['n', 'm', 'z', 'x']",nmzxn,xz,False,LF-random,xm,False
486,2013-02-06 00:00:00,S01,z,z,0.35528802871699994,0,1,1,453,6,3,pattern,"['n', 'm', 'z', 'x']",nmzxn,mz,True,HF-pattern,mz,True
487,2013-02-06 00:00:00,S01,n,z,0.20655107498199998,0,1,0,454,6,3,random,"['n', 'm', 'z', 'x']",nmzxn,zn,False,LF-random,zz,False
489,2013-02-06 00:00:00,S01,x,x,0.340806007385,0,1,1,455,6,3,pattern,"['n', 'm', 'z', 'x']",nmzxn,zx,True,HF-pattern,zn,False
490,2013-02-06 00:00:00,S01,z,z,0.321208953857,0,1,1,456,6,3,random,"['n', 'm', 'z', 'x']",nmzxn,nz,False,LF-random,nx,False
491,2013-02-06 00:00:00,S01,n,n,0.33314704894999997,0,1,1,457,6,3,pattern,"['n', 'm', 'z', 'x']",nmzxn,xn,True,HF-pattern,xz,False
492,2013-02-06 00:00:00,S01,x,z,0.313298940659,0,1,0,458,6,3,random,"['n', 'm', 'z', 'x']",nmzxn,zx,True,HF-random,zn,False
494,2013-02-06 00:00:00,S01,m,m,0.370287895203,0,1,1,459,6,3,pattern,"['n', 'm', 'z', 'x']",nmzxn,nm,True,HF-pattern,nx,False
495,2013-02-06 00:00:00,S01,z,z,0.317098855972,0,1,1,460,6,3,random,"['n', 'm', 'z', 'x']",nmzxn,xz,False,LF-random,xm,False
496,2013-02-06 00:00:00,S01,z,z,0.31334114074700004,0,1,1,461,6,3,pattern,"['n', 'm', 'z', 'x']",nmzxn,mz,True,HF-pattern,mz,True
497,2013-02-06 00:00:00,S01,n,n,0.374727964401,0,1,1,462,6,3,random,"['n', 'm', 'z', 'x']",nmzxn,zn,False,LF-random,zz,False
498,2013-02-06 00:00:00,S01,x,x,0.304787158966,0,1,1,463,6,3,pattern,"['n', 'm', 'z', 'x']",nmzxn,zx,True,HF-pattern,zn,False
499,2013-02-06 00:00:00,S01,z,z,0.366203069687,0,1,1,464,6,3,random,"['n', 'm', 'z', 'x']",nmzxn,nz,False,LF-random,nx,False
500,2013-02-06 00:00:00,S01,n,n,0.312380075455,0,1,1,465,6,3,pattern,"['n', 'm', 'z', 'x']",nmzxn,xn,True,HF-pattern,xz,False
501,2013-02-06 00:00:00,S01,x,x,0.357406139374,0,1,1,466,6,3,random,"['n', 'm', 'z', 'x']",nmzxn,zx,True,HF-random,zn,False
502,2013-02-06 00:00:00,S01,m,n,0.25653600692699996,0,1,0,467,6,3,pattern,"['n', 'm', 'z', 'x']",nmzxn,nm,True,HF-pattern,nx,False
504,2013-02-06 00:00:00,S01,n,n,0.327392101288,0,1,1,468,6,3,random,"['n', 'm', 'z', 'x']",nmzxn,xn,True,HF-random,xm,False
505,2013-02-06 00:00:00,S01,z,z,0.37132811546300004,0,1,1,469,6,3,pattern,"['n', 'm', 'z', 'x']",nmzxn,mz,True,HF-pattern,mn,False
506,2013-02-06 00:00:00,S01,n,n,0.350016117096,0,1,1,470,6,3,random,"['n', 'm', 'z', 'x']",nmzxn,nn,False,LF-random,nz,True
507,2013-02-06 00:00:00,S01,x,x,0.296831130981,0,1,1,471,6,3,pattern,"['n', 'm', 'z', 'x']",nmzxn,zx,True,HF-pattern,zn,False
508,2013-02-06 00:00:00,S01,n,n,0.311024188995,0,1,1,472,6,3,random,"['n', 'm', 'z', 'x']",nmzxn,nn,False,LF-random,nx,True
509,2013-02-06 00:00:00,S01,n,n,0.307938098907,0,1,1,473,6,3,pattern,"['n', 'm', 'z', 'x']",nmzxn,xn,True,HF-pattern,xn,True
510,2013-02-06 00:00:00,S01,m,m,0.288820028305,0,1,1,474,6,3,random,"['n', 'm', 'z', 'x']",nmzxn,nm,True,HF-random,nn,False
511,2013-02-06 00:00:00,S01,m,m,0.43082690238999993,0,1,1,475,6,3,pattern,"['n', 'm', 'z', 'x']",nmzxn,nm,True,HF-pattern,nm,True
512,2013-02-06 00:00:00,S01,z,z,0.34229087829599997,0,1,1,476,6,3,random,"['n', 'm', 'z', 'x']",nmzxn,mz,True,HF-random,mm,False
513,2013-02-06 00:00:00,S01,z,z,0.338089942932,0,1,1,477,6,3,pattern,"['n', 'm', 'z', 'x']",nmzxn,mz,True,HF-pattern,mz,True
514,2013-02-06 00:00:00,S01,m,m,0.349725961685,0,1,1,478,6,3,random,"['n', 'm', 'z', 'x']",nmzxn,zm,False,LF-random,zz,False
515,2013-02-06 00:00:00,S01,x,x,0.328834056854,0,1,1,479,6,3,pattern,"['n', 'm', 'z', 'x']",nmzxn,zx,True,HF-pattern,zm,False
516,2013-02-06 00:00:00,S01,x,x,0.276942014694,0,1,1,480,6,3,random,"['n', 'm', 'z', 'x']",nmzxn,mx,False,LF-random,mx,True
517,2013-02-06 00:00:00,S01,n,n,0.296411991119,0,1,1,481,7,4,pattern,"['n', 'm', 'z', 'x']",nmzxn,xn,True,HF-pattern,xx,False
518,2013-02-06 00:00:00,S01,n,n,0.278594970703,0,1,1,482,7,4,random,"['n', 'm', 'z', 'x']",nmzxn,xn,True,HF-random,xn,True
519,2013-02-06 00:00:00,S01,m,m,0.260997056961,0,1,1,483,7,4,pattern,"['n', 'm', 'z', 'x']",nmzxn,nm,True,HF-pattern,nn,False
520,2013-02-06 00:00:00,S01,n,n,0.243710041046,0,1,1,484,7,4,random,"['n', 'm', 'z', 'x']",nmzxn,nn,False,LF-random,nm,True
521,2013-02-06 00:00:00,S01,z,z,0.339854001999,0,1,1,485,7,4,pattern,"['n', 'm', 'z', 'x']",nmzxn,mz,True,HF-pattern,mn,False
522,2013-02-06 00:00:00,S01,n,x,0.30334186554000003,0,1,0,486,7,4,random,"['n', 'm', 'z', 'x']",nmzxn,nn,False,LF-random,nz,True
524,2013-02-06 00:00:00,S01,x,x,0.34117603302,0,1,1,487,7,4,pattern,"['n', 'm', 'z', 'x']",nmzxn,zx,True,HF-pattern,zn,False
525,2013-02-06 00:00:00,S01,m,m,0.288437843323,0,1,1,488,7,4,random,"['n', 'm', 'z', 'x']",nmzxn,nm,True,HF-random,nx,False
526,2013-02-06 00:00:00,S01,n,n,0.286765098572,0,1,1,489,7,4,pattern,"['n', 'm', 'z', 'x']",nmzxn,xn,True,HF-pattern,xm,False
527,2013-02-06 00:00:00,S01,x,x,0.34794378280599997,0,1,1,490,7,4,random,"['n', 'm', 'z', 'x']",nmzxn,mx,False,LF-random,mn,False
528,2013-02-06 00:00:00,S01,m,m,0.34370803833,0,1,1,491,7,4,pattern,"['n', 'm', 'z', 'x']",nmzxn,nm,True,HF-pattern,nx,False
529,2013-02-06 00:00:00,S01,x,x,0.290673017502,0,1,1,492,7,4,random,"['n', 'm', 'z', 'x']",nmzxn,xx,False,LF-random,xm,True
530,2013-02-06 00:00:00,S01,z,z,0.321042060852,0,1,1,493,7,4,pattern,"['n', 'm', 'z', 'x']",nmzxn,mz,True,HF-pattern,mx,False
531,2013-02-06 00:00:00,S01,n,x,0.301275014877,0,1,0,494,7,4,random,"['n', 'm', 'z', 'x']",nmzxn,xn,True,HF-random,xz,False
533,2013-02-06 00:00:00,S01,x,x,0.306086063385,0,1,1,495,7,4,pattern,"['n', 'm', 'z', 'x']",nmzxn,zx,True,HF-pattern,zn,False
534,2013-02-06 00:00:00,S01,z,z,0.318711996078,0,1,1,496,7,4,random,"['n', 'm', 'z', 'x']",nmzxn,nz,False,LF-random,nx,False
535,2013-02-06 00:00:00,S01,n,n,0.267714977264,0,1,1,497,7,4,pattern,"['n', 'm', 'z', 'x']",nmzxn,xn,True,HF-pattern,xz,False
536,2013-02-06 00:00:00,S01,n,n,0.281986951828,0,1,1,498,7,4,random,"['n', 'm', 'z', 'x']",nmzxn,zn,False,LF-random,zn,True
537,2013-02-06 00:00:00,S01,m,m,0.296069860458,0,1,1,499,7,4,pattern,"['n', 'm', 'z', 'x']",nmzxn,nm,True,HF-pattern,nn,False
538,2013-02-06 00:00:00,S01,z,z,0.341727972031,0,1,1,500,7,4,random,"['n', 'm', 'z', 'x']",nmzxn,nz,False,LF-random,nm,False
539,2013-02-06 00:00:00,S01,z,z,0.257299184799,0,1,1,501,7,4,pattern,"['n', 'm', 'z', 'x']",nmzxn,mz,True,HF-pattern,mz,True
540,2013-02-06 00:00:00,S01,z,z,0.272860050201,0,1,1,502,7,4,random,"['n', 'm', 'z', 'x']",nmzxn,zz,False,LF-random,zz,True
541,2013-02-06 00:00:00,S01,x,x,0.39867115020800004,0,1,1,503,7,4,pattern,"['n', 'm', 'z', 'x']",nmzxn,zx,True,HF-pattern,zz,False
542,2013-02-06 00:00:00,S01,x,x,0.328094005585,0,1,1,504,7,4,random,"['n', 'm', 'z', 'x']",nmzxn,zx,True,HF-random,zx,True
543,2013-02-06 00:00:00,S01,n,n,0.292057991028,0,1,1,505,7,4,pattern,"['n', 'm', 'z', 'x']",nmzxn,xn,True,HF-pattern,xx,False
544,2013-02-06 00:00:00,S01,n,n,0.290240049362,0,1,1,506,7,4,random,"['n', 'm', 'z', 'x']",nmzxn,xn,True,HF-random,xn,True
545,2013-02-06 00:00:00,S01,m,m,0.272045850754,0,1,1,507,7,4,pattern,"['n', 'm', 'z', 'x']",nmzxn,nm,True,HF-pattern,nn,False
546,2013-02-06 00:00:00,S01,z,z,0.302616119385,0,1,1,508,7,4,random,"['n', 'm', 'z', 'x']",nmzxn,nz,False,LF-random,nm,False
547,2013-02-06 00:00:00,S01,z,z,0.395492076874,0,1,1,509,7,4,pattern,"['n', 'm', 'z', 'x']",nmzxn,mz,True,HF-pattern,mz,True
548,2013-02-06 00:00:00,S01,m,m,0.341351032257,0,1,1,510,7,4,random,"['n', 'm', 'z', 'x']",nmzxn,zm,False,LF-random,zz,False
549,2013-02-06 00:00:00,S01,x,n,0.32096600532499997,0,1,0,511,7,4,pattern,"['n', 'm', 'z', 'x']",nmzxn,zx,True,HF-pattern,zm,False
551,2013-02-06 00:00:00,S01,z,z,0.35631179809600005,0,1,1,512,7,4,random,"['n', 'm', 'z', 'x']",nmzxn,mz,True,HF-random,mx,False
552,2013-02-06 00:00:00,S01,n,n,0.334851980209,0,1,1,513,7,4,pattern,"['n', 'm', 'z', 'x']",nmzxn,xn,True,HF-pattern,xz,False
553,2013-02-06 00:00:00,S01,n,n,0.29922413826,0,1,1,514,7,4,random,"['n', 'm', 'z', 'x']",nmzxn,zn,False,LF-random,zn,True
554,2013-02-06 00:00:00,S01,m,m,0.279938936234,0,1,1,515,7,4,pattern,"['n', 'm', 'z', 'x']",nmzxn,nm,True,HF-pattern,nn,False
555,2013-02-06 00:00:00,S01,z,z,0.27879309654199996,0,1,1,516,7,4,random,"['n', 'm', 'z', 'x']",nmzxn,nz,False,LF-random,nm,False
556,2013-02-06 00:00:00,S01,z,z,0.293219089508,0,1,1,517,7,4,pattern,"['n', 'm', 'z', 'x']",nmzxn,mz,True,HF-pattern,mz,True
557,2013-02-06 00:00:00,S01,n,n,0.40274310111999995,0,1,1,518,7,4,random,"['n', 'm', 'z', 'x']",nmzxn,zn,False,LF-random,zz,False
558,2013-02-06 00:00:00,S01,x,n,0.22007703781100002,0,1,0,519,7,4,pattern,"['n', 'm', 'z', 'x']",nmzxn,zx,True,HF-pattern,zn,False
560,2013-02-06 00:00:00,S01,n,n,0.30525898933400003,0,1,1,520,7,4,random,"['n', 'm', 'z', 'x']",nmzxn,nn,False,LF-random,nx,True
561,2013-02-06 00:00:00,S01,n,n,0.334388017654,0,1,1,521,7,4,pattern,"['n', 'm', 'z', 'x']",nmzxn,xn,True,HF-pattern,xn,True
562,2013-02-06 00:00:00,S01,z,z,0.2981569767,0,1,1,522,7,4,random,"['n', 'm', 'z', 'x']",nmzxn,nz,False,LF-random,nn,False
563,2013-02-06 00:00:00,S01,m,m,0.43911385536200004,0,1,1,523,7,4,pattern,"['n', 'm', 'z', 'x']",nmzxn,nm,True,HF-pattern,nz,False
564,2013-02-06 00:00:00,S01,n,n,0.33485507965100003,0,1,1,524,7,4,random,"['n', 'm', 'z', 'x']",nmzxn,zn,False,LF-random,zm,False
565,2013-02-06 00:00:00,S01,z,z,0.489753961563,0,1,1,525,7,4,pattern,"['n', 'm', 'z', 'x']",nmzxn,mz,True,HF-pattern,mn,False
566,2013-02-06 00:00:00,S01,x,x,0.319879055023,0,1,1,526,7,4,random,"['n', 'm', 'z', 'x']",nmzxn,nx,False,LF-random,nz,False
567,2013-02-06 00:00:00,S01,x,x,0.299870014191,0,1,1,527,7,4,pattern,"['n', 'm', 'z', 'x']",nmzxn,zx,True,HF-pattern,zx,True
568,2013-02-06 00:00:00,S01,z,z,0.329390048981,0,1,1,528,7,4,random,"['n', 'm', 'z', 'x']",nmzxn,xz,False,LF-random,xx,False
569,2013-02-06 00:00:00,S01,n,n,0.325549125671,0,1,1,529,7,4,pattern,"['n', 'm', 'z', 'x']",nmzxn,xn,True,HF-pattern,xz,False
570,2013-02-06 00:00:00,S01,n,n,0.322316169739,0,1,1,530,7,4,random,"['n', 'm', 'z', 'x']",nmzxn,zn,False,LF-random,zn,True
571,2013-02-06 00:00:00,S01,m,m,0.286628007889,0,1,1,531,7,4,pattern,"['n', 'm', 'z', 'x']",nmzxn,nm,True,HF-pattern,nn,False
572,2013-02-06 00:00:00,S01,z,z,0.332364082336,0,1,1,532,7,4,random,"['n', 'm', 'z', 'x']",nmzxn,nz,False,LF-random,nm,False
573,2013-02-06 00:00:00,S01,z,z,0.312129020691,0,1,1,533,7,4,pattern,"['n', 'm', 'z', 'x']",nmzxn,mz,True,HF-pattern,mz,True
574,2013-02-06 00:00:00,S01,x,x,0.34108805656400004,0,1,1,534,7,4,random,"['n', 'm', 'z', 'x']",nmzxn,zx,True,HF-random,zz,False
575,2013-02-06 00:00:00,S01,x,x,0.257072925568,0,1,1,535,7,4,pattern,"['n', 'm', 'z', 'x']",nmzxn,zx,True,HF-pattern,zx,True
576,2013-02-06 00:00:00,S01,n,n,0.303758859634,0,1,1,536,7,4,random,"['n', 'm', 'z', 'x']",nmzxn,xn,True,HF-random,xx,False
577,2013-02-06 00:00:00,S01,n,n,0.381260156631,0,1,1,537,7,4,pattern,"['n', 'm', 'z', 'x']",nmzxn,xn,True,HF-pattern,xn,True
578,2013-02-06 00:00:00,S01,z,z,0.262406110764,0,1,1,538,7,4,random,"['n', 'm', 'z', 'x']",nmzxn,nz,False,LF-random,nn,False
579,2013-02-06 00:00:00,S01,m,m,0.32606697082499997,0,1,1,539,7,4,pattern,"['n', 'm', 'z', 'x']",nmzxn,nm,True,HF-pattern,nz,False
580,2013-02-06 00:00:00,S01,z,z,0.258546829224,0,1,1,540,7,4,random,"['n', 'm', 'z', 'x']",nmzxn,zz,False,LF-random,zm,True
581,2013-02-06 00:00:00,S01,z,z,0.273709058762,0,1,1,541,7,4,pattern,"['n', 'm', 'z', 'x']",nmzxn,mz,True,HF-pattern,mz,True
582,2013-02-06 00:00:00,S01,m,m,0.304221868515,0,1,1,542,7,4,random,"['n', 'm', 'z', 'x']",nmzxn,zm,False,LF-random,zz,False
583,2013-02-06 00:00:00,S01,x,z,0.284973859787,0,1,0,543,7,4,pattern,"['n', 'm', 'z', 'x']",nmzxn,zx,True,HF-pattern,zm,False
585,2013-02-06 00:00:00,S01,x,x,0.285650014877,0,1,1,544,7,4,random,"['n', 'm', 'z', 'x']",nmzxn,mx,False,LF-random,mx,True
586,2013-02-06 00:00:00,S01,n,n,0.34782910346999996,0,1,1,545,7,4,pattern,"['n', 'm', 'z', 'x']",nmzxn,xn,True,HF-pattern,xx,False
587,2013-02-06 00:00:00,S01,x,x,0.326555967331,0,1,1,546,7,4,random,"['n', 'm', 'z', 'x']",nmzxn,xx,False,LF-random,xn,True
588,2013-02-06 00:00:00,S01,m,m,0.339028120041,0,1,1,547,7,4,pattern,"['n', 'm', 'z', 'x']",nmzxn,nm,True,HF-pattern,nx,False
589,2013-02-06 00:00:00,S01,m,m,0.28686594963100004,0,1,1,548,7,4,random,"['n', 'm', 'z', 'x']",nmzxn,xm,False,LF-random,xm,True
590,2013-02-06 00:00:00,S01,z,z,0.30068182945300004,0,1,1,549,7,4,pattern,"['n', 'm', 'z', 'x']",nmzxn,mz,True,HF-pattern,mm,False
591,2013-02-06 00:00:00,S01,n,n,0.313749074936,0,1,1,550,7,4,random,"['n', 'm', 'z', 'x']",nmzxn,mn,False,LF-random,mz,False
592,2013-02-06 00:00:00,S01,x,x,0.278403043747,0,1,1,551,7,4,pattern,"['n', 'm', 'z', 'x']",nmzxn,zx,True,HF-pattern,zn,False
593,2013-02-06 00:00:00,S01,z,x,0.22938489913899998,0,1,0,552,7,4,random,"['n', 'm', 'z', 'x']",nmzxn,nz,False,LF-random,nx,False
595,2013-02-06 00:00:00,S01,n,n,0.30042195320099996,0,1,1,553,7,4,pattern,"['n', 'm', 'z', 'x']",nmzxn,xn,True,HF-pattern,xz,False
596,2013-02-06 00:00:00,S01,m,m,0.24988293647799997,0,1,1,554,7,4,random,"['n', 'm', 'z', 'x']",nmzxn,zm,False,LF-random,zn,False
597,2013-02-06 00:00:00,S01,m,m,0.328433036804,0,1,1,555,7,4,pattern,"['n', 'm', 'z', 'x']",nmzxn,nm,True,HF-pattern,nm,True
598,2013-02-06 00:00:00,S01,z,z,0.29358601570099996,0,1,1,556,7,4,random,"['n', 'm', 'z', 'x']",nmzxn,mz,True,HF-random,mm,False
599,2013-02-06 00:00:00,S01,z,z,0.275340080261,0,1,1,557,7,4,pattern,"['n', 'm', 'z', 'x']",nmzxn,mz,True,HF-pattern,mz,True
600,2013-02-06 00:00:00,S01,z,z,0.28999209404,0,1,1,558,7,4,random,"['n', 'm', 'z', 'x']",nmzxn,zz,False,LF-random,zz,True
601,2013-02-06 00:00:00,S01,x,x,0.39955401420599995,0,1,1,559,7,4,pattern,"['n', 'm', 'z', 'x']",nmzxn,zx,True,HF-pattern,zz,False
602,2013-02-06 00:00:00,S01,m,m,0.328561067581,0,1,1,560,7,4,random,"['n', 'm', 'z', 'x']",nmzxn,zm,False,LF-random,zx,False
603,2013-02-06 00:00:00,S01,n,n,0.312345981598,0,1,1,561,8,4,pattern,"['n', 'm', 'z', 'x']",nmzxn,xn,True,HF-pattern,xm,False
604,2013-02-06 00:00:00,S01,z,z,0.30909895896899997,0,1,1,562,8,4,random,"['n', 'm', 'z', 'x']",nmzxn,mz,True,HF-random,mn,False
605,2013-02-06 00:00:00,S01,m,m,0.290556907654,0,1,1,563,8,4,pattern,"['n', 'm', 'z', 'x']",nmzxn,nm,True,HF-pattern,nz,False
606,2013-02-06 00:00:00,S01,m,m,0.304234981537,0,1,1,564,8,4,random,"['n', 'm', 'z', 'x']",nmzxn,zm,False,LF-random,zm,True
607,2013-02-06 00:00:00,S01,z,z,0.269631147385,0,1,1,565,8,4,pattern,"['n', 'm', 'z', 'x']",nmzxn,mz,True,HF-pattern,mm,False
608,2013-02-06 00:00:00,S01,n,n,0.363852024078,0,1,1,566,8,4,random,"['n', 'm', 'z', 'x']",nmzxn,mn,False,LF-random,mz,False
609,2013-02-06 00:00:00,S01,x,x,0.34212207794200006,0,1,1,567,8,4,pattern,"['n', 'm', 'z', 'x']",nmzxn,zx,True,HF-pattern,zn,False
610,2013-02-06 00:00:00,S01,n,n,0.242114067078,0,1,1,568,8,4,random,"['n', 'm', 'z', 'x']",nmzxn,nn,False,LF-random,nx,True
611,2013-02-06 00:00:00,S01,n,n,0.32141304016100003,0,1,1,569,8,4,pattern,"['n', 'm', 'z', 'x']",nmzxn,xn,True,HF-pattern,xn,True
612,2013-02-06 00:00:00,S01,m,m,0.254401922226,0,1,1,570,8,4,random,"['n', 'm', 'z', 'x']",nmzxn,nm,True,HF-random,nn,False
613,2013-02-06 00:00:00,S01,m,m,0.316977977753,0,1,1,571,8,4,pattern,"['n', 'm', 'z', 'x']",nmzxn,nm,True,HF-pattern,nm,True
614,2013-02-06 00:00:00,S01,n,n,0.36207103729199996,0,1,1,572,8,4,random,"['n', 'm', 'z', 'x']",nmzxn,mn,False,LF-random,mm,False
615,2013-02-06 00:00:00,S01,z,z,0.340359926224,0,1,1,573,8,4,pattern,"['n', 'm', 'z', 'x']",nmzxn,mz,True,HF-pattern,mn,False
616,2013-02-06 00:00:00,S01,n,n,0.256603002548,0,1,1,574,8,4,random,"['n', 'm', 'z', 'x']",nmzxn,nn,False,LF-random,nz,True
617,2013-02-06 00:00:00,S01,x,x,0.399439811707,0,1,1,575,8,4,pattern,"['n', 'm', 'z', 'x']",nmzxn,zx,True,HF-pattern,zn,False
618,2013-02-06 00:00:00,S01,z,z,0.328759908676,0,1,1,576,8,4,random,"['n', 'm', 'z', 'x']",nmzxn,nz,False,LF-random,nx,False
619,2013-02-06 00:00:00,S01,n,n,0.293128013611,0,1,1,577,8,4,pattern,"['n', 'm', 'z', 'x']",nmzxn,xn,True,HF-pattern,xz,False
620,2013-02-06 00:00:00,S01,n,n,0.22706699371300001,0,1,1,578,8,4,random,"['n', 'm', 'z', 'x']",nmzxn,zn,False,LF-random,zn,True
621,2013-02-06 00:00:00,S01,m,m,0.27550983429000003,0,1,1,579,8,4,pattern,"['n', 'm', 'z', 'x']",nmzxn,nm,True,HF-pattern,nn,False
622,2013-02-06 00:00:00,S01,x,n,0.305564880371,0,1,0,580,8,4,random,"['n', 'm', 'z', 'x']",nmzxn,nx,False,LF-random,nm,False
624,2013-02-06 00:00:00,S01,z,z,0.278092861176,0,1,1,581,8,4,pattern,"['n', 'm', 'z', 'x']",nmzxn,mz,True,HF-pattern,mx,False
625,2013-02-06 00:00:00,S01,n,n,0.324214935303,0,1,1,582,8,4,random,"['n', 'm', 'z', 'x']",nmzxn,xn,True,HF-random,xz,False
626,2013-02-06 00:00:00,S01,x,x,0.321150064468,0,1,1,583,8,4,pattern,"['n', 'm', 'z', 'x']",nmzxn,zx,True,HF-pattern,zn,False
627,2013-02-06 00:00:00,S01,n,n,0.25301003456099996,0,1,1,584,8,4,random,"['n', 'm', 'z', 'x']",nmzxn,nn,False,LF-random,nx,True
628,2013-02-06 00:00:00,S01,n,n,0.268626928329,0,1,1,585,8,4,pattern,"['n', 'm', 'z', 'x']",nmzxn,xn,True,HF-pattern,xn,True
629,2013-02-06 00:00:00,S01,m,m,0.282842874527,0,1,1,586,8,4,random,"['n', 'm', 'z', 'x']",nmzxn,nm,True,HF-random,nn,False
630,2013-02-06 00:00:00,S01,m,m,0.45703697204599997,0,1,1,587,8,4,pattern,"['n', 'm', 'z', 'x']",nmzxn,nm,True,HF-pattern,nm,True
631,2013-02-06 00:00:00,S01,z,z,0.287415027618,0,1,1,588,8,4,random,"['n', 'm', 'z', 'x']",nmzxn,mz,True,HF-random,mm,False
632,2013-02-06 00:00:00,S01,z,z,0.189527988434,0,1,1,589,8,4,pattern,"['n', 'm', 'z', 'x']",nmzxn,mz,True,HF-pattern,mz,True
633,2013-02-06 00:00:00,S01,z,z,0.319535970688,0,1,1,590,8,4,random,"['n', 'm', 'z', 'x']",nmzxn,zz,False,LF-random,zz,True
634,2013-02-06 00:00:00,S01,x,x,0.315798997879,0,1,1,591,8,4,pattern,"['n', 'm', 'z', 'x']",nmzxn,zx,True,HF-pattern,zz,False
635,2013-02-06 00:00:00,S01,m,m,0.424343109131,0,1,1,592,8,4,random,"['n', 'm', 'z', 'x']",nmzxn,zm,False,LF-random,zx,False
636,2013-02-06 00:00:00,S01,n,n,0.30441904068000003,0,1,1,593,8,4,pattern,"['n', 'm', 'z', 'x']",nmzxn,xn,True,HF-pattern,xm,False
637,2013-02-06 00:00:00,S01,x,x,0.28563117980999997,0,1,1,594,8,4,random,"['n', 'm', 'z', 'x']",nmzxn,mx,False,LF-random,mn,False
638,2013-02-06 00:00:00,S01,m,m,0.33113503456099996,0,1,1,595,8,4,pattern,"['n', 'm', 'z', 'x']",nmzxn,nm,True,HF-pattern,nx,False
639,2013-02-06 00:00:00,S01,n,n,0.327296972275,0,1,1,596,8,4,random,"['n', 'm', 'z', 'x']",nmzxn,xn,True,HF-random,xm,False
640,2013-02-06 00:00:00,S01,z,x,0.22727298736600002,0,1,0,597,8,4,pattern,"['n', 'm', 'z', 'x']",nmzxn,mz,True,HF-pattern,mn,False
642,2013-02-06 00:00:00,S01,x,x,0.375674962997,0,1,1,598,8,4,random,"['n', 'm', 'z', 'x']",nmzxn,nx,False,LF-random,nz,False
643,2013-02-06 00:00:00,S01,x,x,0.306067943573,0,1,1,599,8,4,pattern,"['n', 'm', 'z', 'x']",nmzxn,zx,True,HF-pattern,zx,True
644,2013-02-06 00:00:00,S01,x,x,0.287031173706,0,1,1,600,8,4,random,"['n', 'm', 'z', 'x']",nmzxn,xx,False,LF-random,xx,True
645,2013-02-06 00:00:00,S01,n,n,0.30050110817,0,1,1,601,8,4,pattern,"['n', 'm', 'z', 'x']",nmzxn,xn,True,HF-pattern,xx,False
646,2013-02-06 00:00:00,S01,x,x,0.50599193573,0,1,1,602,8,4,random,"['n', 'm', 'z', 'x']",nmzxn,xx,False,LF-random,xn,True
647,2013-02-06 00:00:00,S01,m,m,0.302644968033,0,1,1,603,8,4,pattern,"['n', 'm', 'z', 'x']",nmzxn,nm,True,HF-pattern,nx,False
648,2013-02-06 00:00:00,S01,n,x,0.29975509643599996,0,1,0,604,8,4,random,"['n', 'm', 'z', 'x']",nmzxn,xn,True,HF-random,xm,False
650,2013-02-06 00:00:00,S01,z,z,0.302402973175,0,1,1,605,8,4,pattern,"['n', 'm', 'z', 'x']",nmzxn,mz,True,HF-pattern,mn,False
651,2013-02-06 00:00:00,S01,x,x,0.283493041992,0,1,1,606,8,4,random,"['n', 'm', 'z', 'x']",nmzxn,nx,False,LF-random,nz,False
652,2013-02-06 00:00:00,S01,x,x,0.281451940536,0,1,1,607,8,4,pattern,"['n', 'm', 'z', 'x']",nmzxn,zx,True,HF-pattern,zx,True
653,2013-02-06 00:00:00,S01,m,m,0.327077150345,0,1,1,608,8,4,random,"['n', 'm', 'z', 'x']",nmzxn,xm,False,LF-random,xx,False
654,2013-02-06 00:00:00,S01,n,n,0.307178020477,0,1,1,609,8,4,pattern,"['n', 'm', 'z', 'x']",nmzxn,xn,True,HF-pattern,xm,False
655,2013-02-06 00:00:00,S01,z,z,0.33689117431599996,0,1,1,610,8,4,random,"['n', 'm', 'z', 'x']",nmzxn,mz,True,HF-random,mn,False
656,2013-02-06 00:00:00,S01,m,m,0.39585995674099994,0,1,1,611,8,4,pattern,"['n', 'm', 'z', 'x']",nmzxn,nm,True,HF-pattern,nz,False
657,2013-02-06 00:00:00,S01,x,x,0.309983968735,0,1,1,612,8,4,random,"['n', 'm', 'z', 'x']",nmzxn,zx,True,HF-random,zm,False
658,2013-02-06 00:00:00,S01,z,z,0.338651895523,0,1,1,613,8,4,pattern,"['n', 'm', 'z', 'x']",nmzxn,mz,True,HF-pattern,mx,False
659,2013-02-06 00:00:00,S01,z,z,0.31894493103,0,1,1,614,8,4,random,"['n', 'm', 'z', 'x']",nmzxn,xz,False,LF-random,xz,True
660,2013-02-06 00:00:00,S01,x,x,0.346828222275,0,1,1,615,8,4,pattern,"['n', 'm', 'z', 'x']",nmzxn,zx,True,HF-pattern,zz,False
661,2013-02-06 00:00:00,S01,m,m,0.310240030289,0,1,1,616,8,4,random,"['n', 'm', 'z', 'x']",nmzxn,zm,False,LF-random,zx,False
662,2013-02-06 00:00:00,S01,n,n,0.434892892838,0,1,1,617,8,4,pattern,"['n', 'm', 'z', 'x']",nmzxn,xn,True,HF-pattern,xm,False
663,2013-02-06 00:00:00,S01,x,x,0.314809083939,0,1,1,618,8,4,random,"['n', 'm', 'z', 'x']",nmzxn,mx,False,LF-random,mn,False
664,2013-02-06 00:00:00,S01,m,m,0.310773849487,0,1,1,619,8,4,pattern,"['n', 'm', 'z', 'x']",nmzxn,nm,True,HF-pattern,nx,False
665,2013-02-06 00:00:00,S01,z,z,0.40424990654,0,1,1,620,8,4,random,"['n', 'm', 'z', 'x']",nmzxn,xz,False,LF-random,xm,False
666,2013-02-06 00:00:00,S01,z,z,0.300748825073,0,1,1,621,8,4,pattern,"['n', 'm', 'z', 'x']",nmzxn,mz,True,HF-pattern,mz,True
667,2013-02-06 00:00:00,S01,n,n,0.346511125565,0,1,1,622,8,4,random,"['n', 'm', 'z', 'x']",nmzxn,zn,False,LF-random,zz,False
668,2013-02-06 00:00:00,S01,x,x,0.325729131699,0,1,1,623,8,4,pattern,"['n', 'm', 'z', 'x']",nmzxn,zx,True,HF-pattern,zn,False
669,2013-02-06 00:00:00,S01,m,m,0.306645870209,0,1,1,624,8,4,random,"['n', 'm', 'z', 'x']",nmzxn,nm,True,HF-random,nx,False
670,2013-02-06 00:00:00,S01,n,x,0.30335521698,0,1,0,625,8,4,pattern,"['n', 'm', 'z', 'x']",nmzxn,xn,True,HF-pattern,xm,False
672,2013-02-06 00:00:00,S01,x,x,0.266592025757,0,1,1,626,8,4,random,"['n', 'm', 'z', 'x']",nmzxn,mx,False,LF-random,mn,False
673,2013-02-06 00:00:00,S01,m,m,0.281186103821,0,1,1,627,8,4,pattern,"['n', 'm', 'z', 'x']",nmzxn,nm,True,HF-pattern,nx,False
674,2013-02-06 00:00:00,S01,x,x,0.359040021896,0,1,1,628,8,4,random,"['n', 'm', 'z', 'x']",nmzxn,xx,False,LF-random,xm,True
675,2013-02-06 00:00:00,S01,z,z,0.38635206222499996,0,1,1,629,8,4,pattern,"['n', 'm', 'z', 'x']",nmzxn,mz,True,HF-pattern,mx,False
676,2013-02-06 00:00:00,S01,n,n,0.33161497116099997,0,1,1,630,8,4,random,"['n', 'm', 'z', 'x']",nmzxn,xn,True,HF-random,xz,False
677,2013-02-06 00:00:00,S01,x,x,0.279369115829,0,1,1,631,8,4,pattern,"['n', 'm', 'z', 'x']",nmzxn,zx,True,HF-pattern,zn,False
678,2013-02-06 00:00:00,S01,z,z,0.38951897621200005,0,1,1,632,8,4,random,"['n', 'm', 'z', 'x']",nmzxn,nz,False,LF-random,nx,False
679,2013-02-06 00:00:00,S01,n,n,0.287484884262,0,1,1,633,8,4,pattern,"['n', 'm', 'z', 'x']",nmzxn,xn,True,HF-pattern,xz,False
680,2013-02-06 00:00:00,S01,m,m,0.332767963409,0,1,1,634,8,4,random,"['n', 'm', 'z', 'x']",nmzxn,zm,False,LF-random,zn,False
681,2013-02-06 00:00:00,S01,m,m,0.42518401145900003,0,1,1,635,8,4,pattern,"['n', 'm', 'z', 'x']",nmzxn,nm,True,HF-pattern,nm,True
682,2013-02-06 00:00:00,S01,n,x,0.32102394104000004,0,1,0,636,8,4,random,"['n', 'm', 'z', 'x']",nmzxn,mn,False,LF-random,mm,False
684,2013-02-06 00:00:00,S01,z,z,0.324080944061,0,1,1,637,8,4,pattern,"['n', 'm', 'z', 'x']",nmzxn,mz,True,HF-pattern,mn,False
685,2013-02-06 00:00:00,S01,m,m,0.368846893311,0,1,1,638,8,4,random,"['n', 'm', 'z', 'x']",nmzxn,nm,True,HF-random,nz,False
686,2013-02-06 00:00:00,S01,x,x,0.314932107925,0,1,1,639,8,4,pattern,"['n', 'm', 'z', 'x']",nmzxn,zx,True,HF-pattern,zm,False
687,2013-02-06 00:00:00,S01,x,x,0.263689994812,0,1,1,640,8,4,random,"['n', 'm', 'z', 'x']",nmzxn,mx,False,LF-random,mx,True
688,2013-02-06 00:00:00,S01,n,n,0.307989835739,0,1,1,641,9,5,pattern,"['n', 'm', 'z', 'x']",nmzxn,xn,True,HF-pattern,xx,False
689,2013-02-06 00:00:00,S01,n,n,0.288697004318,0,1,1,642,9,5,random,"['n', 'm', 'z', 'x']",nmzxn,xn,True,HF-random,xn,True
690,2013-02-06 00:00:00,S01,m,m,0.303164958954,0,1,1,643,9,5,pattern,"['n', 'm', 'z', 'x']",nmzxn,nm,True,HF-pattern,nn,False
691,2013-02-06 00:00:00,S01,m,m,0.283901929855,0,1,1,644,9,5,random,"['n', 'm', 'z', 'x']",nmzxn,nm,True,HF-random,nm,True
692,2013-02-06 00:00:00,S01,z,m,0.15367698669399998,0,1,0,645,9,5,pattern,"['n', 'm', 'z', 'x']",nmzxn,mz,True,HF-pattern,mm,False
694,2013-02-06 00:00:00,S01,z,z,0.341512918472,0,1,1,646,9,5,random,"['n', 'm', 'z', 'x']",nmzxn,mz,True,HF-random,mz,True
695,2013-02-06 00:00:00,S01,x,z,0.161282062531,0,1,0,647,9,5,pattern,"['n', 'm', 'z', 'x']",nmzxn,zx,True,HF-pattern,zz,False
697,2013-02-06 00:00:00,S01,x,x,0.233603954315,0,1,1,648,9,5,random,"['n', 'm', 'z', 'x']",nmzxn,zx,True,HF-random,zx,True
698,2013-02-06 00:00:00,S01,n,n,0.329164981842,0,1,1,649,9,5,pattern,"['n', 'm', 'z', 'x']",nmzxn,xn,True,HF-pattern,xx,False
699,2013-02-06 00:00:00,S01,z,x,0.309875965118,0,1,0,650,9,5,random,"['n', 'm', 'z', 'x']",nmzxn,xz,False,LF-random,xn,False
701,2013-02-06 00:00:00,S01,m,m,0.321759939194,0,1,1,651,9,5,pattern,"['n', 'm', 'z', 'x']",nmzxn,nm,True,HF-pattern,nz,False
702,2013-02-06 00:00:00,S01,n,n,0.398748159409,0,1,1,652,9,5,random,"['n', 'm', 'z', 'x']",nmzxn,zn,False,LF-random,zm,False
703,2013-02-06 00:00:00,S01,z,z,0.29529500007599996,0,1,1,653,9,5,pattern,"['n', 'm', 'z', 'x']",nmzxn,mz,True,HF-pattern,mn,False
704,2013-02-06 00:00:00,S01,m,m,0.325500011444,0,1,1,654,9,5,random,"['n', 'm', 'z', 'x']",nmzxn,nm,True,HF-random,nz,False
705,2013-02-06 00:00:00,S01,x,x,0.305332899094,0,1,1,655,9,5,pattern,"['n', 'm', 'z', 'x']",nmzxn,zx,True,HF-pattern,zm,False
706,2013-02-06 00:00:00,S01,x,x,0.510897159576,0,1,1,656,9,5,random,"['n', 'm', 'z', 'x']",nmzxn,mx,False,LF-random,mx,True
707,2013-02-06 00:00:00,S01,n,m,0.323303937912,0,1,0,657,9,5,pattern,"['n', 'm', 'z', 'x']",nmzxn,xn,True,HF-pattern,xx,False
709,2013-02-06 00:00:00,S01,z,z,0.347804784775,0,1,1,658,9,5,random,"['n', 'm', 'z', 'x']",nmzxn,xz,False,LF-random,xn,False
710,2013-02-06 00:00:00,S01,m,m,0.326915979385,0,1,1,659,9,5,pattern,"['n', 'm', 'z', 'x']",nmzxn,nm,True,HF-pattern,nz,False
711,2013-02-06 00:00:00,S01,m,n,0.21125292778000002,0,1,0,660,9,5,random,"['n', 'm', 'z', 'x']",nmzxn,zm,False,LF-random,zm,True
713,2013-02-06 00:00:00,S01,z,z,0.293169021606,0,1,1,661,9,5,pattern,"['n', 'm', 'z', 'x']",nmzxn,mz,True,HF-pattern,mm,False
714,2013-02-06 00:00:00,S01,z,z,0.178909063339,0,1,1,662,9,5,random,"['n', 'm', 'z', 'x']",nmzxn,mz,True,HF-random,mz,True
715,2013-02-06 00:00:00,S01,x,x,0.40527009964,0,1,1,663,9,5,pattern,"['n', 'm', 'z', 'x']",nmzxn,zx,True,HF-pattern,zz,False
716,2013-02-06 00:00:00,S01,n,x,0.15846705436699998,0,1,0,664,9,5,random,"['n', 'm', 'z', 'x']",nmzxn,zn,False,LF-random,zx,False
718,2013-02-06 00:00:00,S01,n,n,0.294820070267,0,1,1,665,9,5,pattern,"['n', 'm', 'z', 'x']",nmzxn,xn,True,HF-pattern,xn,True
719,2013-02-06 00:00:00,S01,x,z,0.260541200638,0,1,0,666,9,5,random,"['n', 'm', 'z', 'x']",nmzxn,nx,False,LF-random,nn,False
721,2013-02-06 00:00:00,S01,m,m,0.312718153,0,1,1,667,9,5,pattern,"['n', 'm', 'z', 'x']",nmzxn,nm,True,HF-pattern,nx,False
722,2013-02-06 00:00:00,S01,x,x,0.27770805358899997,0,1,1,668,9,5,random,"['n', 'm', 'z', 'x']",nmzxn,xx,False,LF-random,xm,True
723,2013-02-06 00:00:00,S01,z,z,0.404337882996,0,1,1,669,9,5,pattern,"['n', 'm', 'z', 'x']",nmzxn,mz,True,HF-pattern,mx,False
724,2013-02-06 00:00:00,S01,m,m,0.301209926605,0,1,1,670,9,5,random,"['n', 'm', 'z', 'x']",nmzxn,xm,False,LF-random,xz,False
725,2013-02-06 00:00:00,S01,x,x,0.282523870468,0,1,1,671,9,5,pattern,"['n', 'm', 'z', 'x']",nmzxn,zx,True,HF-pattern,zm,False
726,2013-02-06 00:00:00,S01,m,x,0.216067075729,0,1,0,672,9,5,random,"['n', 'm', 'z', 'x']",nmzxn,mm,False,LF-random,mx,True
728,2013-02-06 00:00:00,S01,n,z,0.24362015724199998,0,1,0,673,9,5,pattern,"['n', 'm', 'z', 'x']",nmzxn,xn,True,HF-pattern,xm,False
731,2013-02-06 00:00:00,S01,m,m,0.323173046112,0,1,1,674,9,5,random,"['n', 'm', 'z', 'x']",nmzxn,mm,False,LF-random,mn,True
732,2013-02-06 00:00:00,S01,m,m,0.272034883499,0,1,1,675,9,5,pattern,"['n', 'm', 'z', 'x']",nmzxn,nm,True,HF-pattern,nm,True
733,2013-02-06 00:00:00,S01,z,z,0.286522865295,0,1,1,676,9,5,random,"['n', 'm', 'z', 'x']",nmzxn,mz,True,HF-random,mm,False
734,2013-02-06 00:00:00,S01,z,x,0.268217086792,0,1,0,677,9,5,pattern,"['n', 'm', 'z', 'x']",nmzxn,mz,True,HF-pattern,mz,True
736,2013-02-06 00:00:00,S01,m,m,0.320001125336,0,1,1,678,9,5,random,"['n', 'm', 'z', 'x']",nmzxn,zm,False,LF-random,zz,False
737,2013-02-06 00:00:00,S01,x,x,0.300854921341,0,1,1,679,9,5,pattern,"['n', 'm', 'z', 'x']",nmzxn,zx,True,HF-pattern,zm,False
738,2013-02-06 00:00:00,S01,x,x,0.24976301193199998,0,1,1,680,9,5,random,"['n', 'm', 'z', 'x']",nmzxn,mx,False,LF-random,mx,True
739,2013-02-06 00:00:00,S01,n,x,0.168930053711,0,1,0,681,9,5,pattern,"['n', 'm', 'z', 'x']",nmzxn,xn,True,HF-pattern,xx,False
741,2013-02-06 00:00:00,S01,m,m,0.28937506675700003,0,1,1,682,9,5,random,"['n', 'm', 'z', 'x']",nmzxn,xm,False,LF-random,xn,False
742,2013-02-06 00:00:00,S01,m,m,0.335168838501,0,1,1,683,9,5,pattern,"['n', 'm', 'z', 'x']",nmzxn,nm,True,HF-pattern,nm,True
743,2013-02-06 00:00:00,S01,n,n,0.33079791069000003,0,1,1,684,9,5,random,"['n', 'm', 'z', 'x']",nmzxn,mn,False,LF-random,mm,False
744,2013-02-06 00:00:00,S01,z,z,0.310283899307,0,1,1,685,9,5,pattern,"['n', 'm', 'z', 'x']",nmzxn,mz,True,HF-pattern,mn,False
745,2013-02-06 00:00:00,S01,n,x,0.291589975357,0,1,0,686,9,5,random,"['n', 'm', 'z', 'x']",nmzxn,nn,False,LF-random,nz,True
747,2013-02-06 00:00:00,S01,x,x,0.38161611556999997,0,1,1,687,9,5,pattern,"['n', 'm', 'z', 'x']",nmzxn,zx,True,HF-pattern,zn,False
748,2013-02-06 00:00:00,S01,z,x,0.183463811874,0,1,0,688,9,5,random,"['n', 'm', 'z', 'x']",nmzxn,nz,False,LF-random,nx,False
750,2013-02-06 00:00:00,S01,n,n,0.3203561306,0,1,1,689,9,5,pattern,"['n', 'm', 'z', 'x']",nmzxn,xn,True,HF-pattern,xz,False
751,2013-02-06 00:00:00,S01,n,n,0.26877498626699997,0,1,1,690,9,5,random,"['n', 'm', 'z', 'x']",nmzxn,zn,False,LF-random,zn,True
752,2013-02-06 00:00:00,S01,m,m,0.330981969833,0,1,1,691,9,5,pattern,"['n', 'm', 'z', 'x']",nmzxn,nm,True,HF-pattern,nn,False
753,2013-02-06 00:00:00,S01,z,z,0.295022010803,0,1,1,692,9,5,random,"['n', 'm', 'z', 'x']",nmzxn,nz,False,LF-random,nm,False
754,2013-02-06 00:00:00,S01,z,z,0.34023404121399997,0,1,1,693,9,5,pattern,"['n', 'm', 'z', 'x']",nmzxn,mz,True,HF-pattern,mz,True
755,2013-02-06 00:00:00,S01,n,z,0.12842607498199998,0,1,0,694,9,5,random,"['n', 'm', 'z', 'x']",nmzxn,zn,False,LF-random,zz,False
757,2013-02-06 00:00:00,S01,x,x,0.360363006592,0,1,1,695,9,5,pattern,"['n', 'm', 'z', 'x']",nmzxn,zx,True,HF-pattern,zn,False
758,2013-02-06 00:00:00,S01,n,n,0.24385404586800002,0,1,1,696,9,5,random,"['n', 'm', 'z', 'x']",nmzxn,nn,False,LF-random,nx,True
759,2013-02-06 00:00:00,S01,n,n,0.291083812714,0,1,1,697,9,5,pattern,"['n', 'm', 'z', 'x']",nmzxn,xn,True,HF-pattern,xn,True
760,2013-02-06 00:00:00,S01,n,n,0.289588212967,0,1,1,698,9,5,random,"['n', 'm', 'z', 'x']",nmzxn,nn,False,LF-random,nn,True
761,2013-02-06 00:00:00,S01,m,m,0.334999084473,0,1,1,699,9,5,pattern,"['n', 'm', 'z', 'x']",nmzxn,nm,True,HF-pattern,nn,False
762,2013-02-06 00:00:00,S01,x,n,0.267035007477,0,1,0,700,9,5,random,"['n', 'm', 'z', 'x']",nmzxn,nx,False,LF-random,nm,False
764,2013-02-06 00:00:00,S01,z,z,0.311394929886,0,1,1,701,9,5,pattern,"['n', 'm', 'z', 'x']",nmzxn,mz,True,HF-pattern,mx,False
765,2013-02-06 00:00:00,S01,x,x,0.18059802055399998,0,1,1,702,9,5,random,"['n', 'm', 'z', 'x']",nmzxn,xx,False,LF-random,xz,True
766,2013-02-06 00:00:00,S01,x,x,0.230479001999,0,1,1,703,9,5,pattern,"['n', 'm', 'z', 'x']",nmzxn,zx,True,HF-pattern,zx,True
767,2013-02-06 00:00:00,S01,n,x,0.150322198868,0,1,0,704,9,5,random,"['n', 'm', 'z', 'x']",nmzxn,xn,True,HF-random,xx,False
769,2013-02-06 00:00:00,S01,n,n,0.24142408371,0,1,1,705,9,5,pattern,"['n', 'm', 'z', 'x']",nmzxn,xn,True,HF-pattern,xn,True
770,2013-02-06 00:00:00,S01,x,x,0.320871829987,0,1,1,706,9,5,random,"['n', 'm', 'z', 'x']",nmzxn,nx,False,LF-random,nn,False
771,2013-02-06 00:00:00,S01,m,m,0.269757032394,0,1,1,707,9,5,pattern,"['n', 'm', 'z', 'x']",nmzxn,nm,True,HF-pattern,nx,False
772,2013-02-06 00:00:00,S01,x,x,0.268246889114,0,1,1,708,9,5,random,"['n', 'm', 'z', 'x']",nmzxn,xx,False,LF-random,xm,True
773,2013-02-06 00:00:00,S01,z,z,0.266637086868,0,1,1,709,9,5,pattern,"['n', 'm', 'z', 'x']",nmzxn,mz,True,HF-pattern,mx,False
774,2013-02-06 00:00:00,S01,n,n,0.361300945282,0,1,1,710,9,5,random,"['n', 'm', 'z', 'x']",nmzxn,xn,True,HF-random,xz,False
775,2013-02-06 00:00:00,S01,x,x,0.323754072189,0,1,1,711,9,5,pattern,"['n', 'm', 'z', 'x']",nmzxn,zx,True,HF-pattern,zn,False
776,2013-02-06 00:00:00,S01,z,n,0.09666895866389999,0,1,0,712,9,5,random,"['n', 'm', 'z', 'x']",nmzxn,nz,False,LF-random,nx,False
778,2013-02-06 00:00:00,S01,n,n,0.40982103347800003,0,1,1,713,9,5,pattern,"['n', 'm', 'z', 'x']",nmzxn,xn,True,HF-pattern,xz,False
779,2013-02-06 00:00:00,S01,n,n,0.259239912033,0,1,1,714,9,5,random,"['n', 'm', 'z', 'x']",nmzxn,zn,False,LF-random,zn,True
780,2013-02-06 00:00:00,S01,m,n,0.130161046982,0,1,0,715,9,5,pattern,"['n', 'm', 'z', 'x']",nmzxn,nm,True,HF-pattern,nn,False
782,2013-02-06 00:00:00,S01,z,z,0.38076019287100005,0,1,1,716,9,5,random,"['n', 'm', 'z', 'x']",nmzxn,nz,False,LF-random,nm,False
783,2013-02-06 00:00:00,S01,z,x,0.261898994446,0,1,0,717,9,5,pattern,"['n', 'm', 'z', 'x']",nmzxn,mz,True,HF-pattern,mz,True
785,2013-02-06 00:00:00,S01,z,z,0.28091216087299997,0,1,1,718,9,5,random,"['n', 'm', 'z', 'x']",nmzxn,zz,False,LF-random,zz,True
786,2013-02-06 00:00:00,S01,x,z,0.13477396965,0,1,0,719,9,5,pattern,"['n', 'm', 'z', 'x']",nmzxn,zx,True,HF-pattern,zz,False
788,2013-02-06 00:00:00,S01,x,x,0.255656957626,0,1,1,720,9,5,random,"['n', 'm', 'z', 'x']",nmzxn,zx,True,HF-random,zx,True
789,2013-02-06 00:00:00,S01,n,n,0.288722991943,0,1,1,721,10,5,pattern,"['n', 'm', 'z', 'x']",nmzxn,xn,True,HF-pattern,xx,False
790,2013-02-06 00:00:00,S01,n,n,0.254922866821,0,1,1,722,10,5,random,"['n', 'm', 'z', 'x']",nmzxn,xn,True,HF-random,xn,True
791,2013-02-06 00:00:00,S01,m,m,0.286250114441,0,1,1,723,10,5,pattern,"['n', 'm', 'z', 'x']",nmzxn,nm,True,HF-pattern,nn,False
792,2013-02-06 00:00:00,S01,x,x,0.28339600563,0,1,1,724,10,5,random,"['n', 'm', 'z', 'x']",nmzxn,nx,False,LF-random,nm,False
793,2013-02-06 00:00:00,S01,z,z,0.313642978668,0,1,1,725,10,5,pattern,"['n', 'm', 'z', 'x']",nmzxn,mz,True,HF-pattern,mx,False
794,2013-02-06 00:00:00,S01,m,m,0.342363119125,0,1,1,726,10,5,random,"['n', 'm', 'z', 'x']",nmzxn,xm,False,LF-random,xz,False
795,2013-02-06 00:00:00,S01,x,x,0.402374982834,0,1,1,727,10,5,pattern,"['n', 'm', 'z', 'x']",nmzxn,zx,True,HF-pattern,zm,False
796,2013-02-06 00:00:00,S01,m,m,0.28292298317,0,1,1,728,10,5,random,"['n', 'm', 'z', 'x']",nmzxn,mm,False,LF-random,mx,True
797,2013-02-06 00:00:00,S01,n,n,0.297077894211,0,1,1,729,10,5,pattern,"['n', 'm', 'z', 'x']",nmzxn,xn,True,HF-pattern,xm,False
798,2013-02-06 00:00:00,S01,z,z,0.310446023941,0,1,1,730,10,5,random,"['n', 'm', 'z', 'x']",nmzxn,mz,True,HF-random,mn,False
799,2013-02-06 00:00:00,S01,m,m,0.356107950211,0,1,1,731,10,5,pattern,"['n', 'm', 'z', 'x']",nmzxn,nm,True,HF-pattern,nz,False
800,2013-02-06 00:00:00,S01,z,z,0.286859989166,0,1,1,732,10,5,random,"['n', 'm', 'z', 'x']",nmzxn,zz,False,LF-random,zm,True
801,2013-02-06 00:00:00,S01,z,z,0.220991849899,0,1,1,733,10,5,pattern,"['n', 'm', 'z', 'x']",nmzxn,mz,True,HF-pattern,mz,True
802,2013-02-06 00:00:00,S01,n,n,0.30158495903,0,1,1,734,10,5,random,"['n', 'm', 'z', 'x']",nmzxn,zn,False,LF-random,zz,False
803,2013-02-06 00:00:00,S01,x,z,0.250332117081,0,1,0,735,10,5,pattern,"['n', 'm', 'z', 'x']",nmzxn,zx,True,HF-pattern,zn,False
805,2013-02-06 00:00:00,S01,z,z,0.317163944244,0,1,1,736,10,5,random,"['n', 'm', 'z', 'x']",nmzxn,nz,False,LF-random,nx,False
806,2013-02-06 00:00:00,S01,n,n,0.345648050308,0,1,1,737,10,5,pattern,"['n', 'm', 'z', 'x']",nmzxn,xn,True,HF-pattern,xz,False
807,2013-02-06 00:00:00,S01,m,m,0.261539936066,0,1,1,738,10,5,random,"['n', 'm', 'z', 'x']",nmzxn,zm,False,LF-random,zn,False
808,2013-02-06 00:00:00,S01,m,m,0.340502977371,0,1,1,739,10,5,pattern,"['n', 'm', 'z', 'x']",nmzxn,nm,True,HF-pattern,nm,True
809,2013-02-06 00:00:00,S01,m,m,0.272421836853,0,1,1,740,10,5,random,"['n', 'm', 'z', 'x']",nmzxn,mm,False,LF-random,mm,True
810,2013-02-06 00:00:00,S01,z,z,0.31826496124299997,0,1,1,741,10,5,pattern,"['n', 'm', 'z', 'x']",nmzxn,mz,True,HF-pattern,mm,False
811,2013-02-06 00:00:00,S01,m,m,0.363343954086,0,1,1,742,10,5,random,"['n', 'm', 'z', 'x']",nmzxn,mm,False,LF-random,mz,True
812,2013-02-06 00:00:00,S01,x,x,0.37380313873300003,0,1,1,743,10,5,pattern,"['n', 'm', 'z', 'x']",nmzxn,zx,True,HF-pattern,zm,False
813,2013-02-06 00:00:00,S01,m,m,0.336524009705,0,1,1,744,10,5,random,"['n', 'm', 'z', 'x']",nmzxn,mm,False,LF-random,mx,True
814,2013-02-06 00:00:00,S01,n,n,0.363792896271,0,1,1,745,10,5,pattern,"['n', 'm', 'z', 'x']",nmzxn,xn,True,HF-pattern,xm,False
815,2013-02-06 00:00:00,S01,z,z,0.374649047852,0,1,1,746,10,5,random,"['n', 'm', 'z', 'x']",nmzxn,mz,True,HF-random,mn,False
816,2013-02-06 00:00:00,S01,m,m,0.33646202087399996,0,1,1,747,10,5,pattern,"['n', 'm', 'z', 'x']",nmzxn,nm,True,HF-pattern,nz,False
817,2013-02-06 00:00:00,S01,n,n,0.30071282386799997,0,1,1,748,10,5,random,"['n', 'm', 'z', 'x']",nmzxn,zn,False,LF-random,zm,False
818,2013-02-06 00:00:00,S01,z,z,0.297283172607,0,1,1,749,10,5,pattern,"['n', 'm', 'z', 'x']",nmzxn,mz,True,HF-pattern,mn,False
819,2013-02-06 00:00:00,S01,m,m,0.26278090477,0,1,1,750,10,5,random,"['n', 'm', 'z', 'x']",nmzxn,nm,True,HF-random,nz,False
820,2013-02-06 00:00:00,S01,x,z,0.292957782745,0,1,0,751,10,5,pattern,"['n', 'm', 'z', 'x']",nmzxn,zx,True,HF-pattern,zm,False
822,2013-02-06 00:00:00,S01,m,m,0.27724480629000003,0,1,1,752,10,5,random,"['n', 'm', 'z', 'x']",nmzxn,mm,False,LF-random,mx,True
823,2013-02-06 00:00:00,S01,n,n,0.339229106903,0,1,1,753,10,5,pattern,"['n', 'm', 'z', 'x']",nmzxn,xn,True,HF-pattern,xm,False
824,2013-02-06 00:00:00,S01,n,n,0.367394924164,0,1,1,754,10,5,random,"['n', 'm', 'z', 'x']",nmzxn,mn,False,LF-random,mn,True
825,2013-02-06 00:00:00,S01,m,m,0.345292806625,0,1,1,755,10,5,pattern,"['n', 'm', 'z', 'x']",nmzxn,nm,True,HF-pattern,nn,False
826,2013-02-06 00:00:00,S01,x,x,0.40526294708300004,0,1,1,756,10,5,random,"['n', 'm', 'z', 'x']",nmzxn,nx,False,LF-random,nm,False
827,2013-02-06 00:00:00,S01,z,x,0.173758029938,0,1,0,757,10,5,pattern,"['n', 'm', 'z', 'x']",nmzxn,mz,True,HF-pattern,mx,False
829,2013-02-06 00:00:00,S01,n,n,0.293130874634,0,1,1,758,10,5,random,"['n', 'm', 'z', 'x']",nmzxn,xn,True,HF-random,xz,False
830,2013-02-06 00:00:00,S01,x,x,0.33854198455799994,0,1,1,759,10,5,pattern,"['n', 'm', 'z', 'x']",nmzxn,zx,True,HF-pattern,zn,False
831,2013-02-06 00:00:00,S01,m,m,0.334664106369,0,1,1,760,10,5,random,"['n', 'm', 'z', 'x']",nmzxn,nm,True,HF-random,nx,False
832,2013-02-06 00:00:00,S01,n,n,0.313989877701,0,1,1,761,10,5,pattern,"['n', 'm', 'z', 'x']",nmzxn,xn,True,HF-pattern,xm,False
833,2013-02-06 00:00:00,S01,z,z,0.326974153519,0,1,1,762,10,5,random,"['n', 'm', 'z', 'x']",nmzxn,mz,True,HF-random,mn,False
834,2013-02-06 00:00:00,S01,m,m,0.33877611160300003,0,1,1,763,10,5,pattern,"['n', 'm', 'z', 'x']",nmzxn,nm,True,HF-pattern,nz,False
835,2013-02-06 00:00:00,S01,m,m,0.302929878235,0,1,1,764,10,5,random,"['n', 'm', 'z', 'x']",nmzxn,zm,False,LF-random,zm,True
836,2013-02-06 00:00:00,S01,z,m,0.139893054962,0,1,0,765,10,5,pattern,"['n', 'm', 'z', 'x']",nmzxn,mz,True,HF-pattern,mm,False
838,2013-02-06 00:00:00,S01,z,z,0.372924089432,0,1,1,766,10,5,random,"['n', 'm', 'z', 'x']",nmzxn,mz,True,HF-random,mz,True
839,2013-02-06 00:00:00,S01,x,n,0.366647958755,0,1,0,767,10,5,pattern,"['n', 'm', 'z', 'x']",nmzxn,zx,True,HF-pattern,zz,False
841,2013-02-06 00:00:00,S01,x,x,0.339298963547,0,1,1,768,10,5,random,"['n', 'm', 'z', 'x']",nmzxn,zx,True,HF-random,zx,True
842,2013-02-06 00:00:00,S01,n,n,0.33488893508900003,0,1,1,769,10,5,pattern,"['n', 'm', 'z', 'x']",nmzxn,xn,True,HF-pattern,xx,False
843,2013-02-06 00:00:00,S01,m,n,0.23459196090700002,0,1,0,770,10,5,random,"['n', 'm', 'z', 'x']",nmzxn,xm,False,LF-random,xn,False
845,2013-02-06 00:00:00,S01,m,m,0.32507896423300003,0,1,1,771,10,5,pattern,"['n', 'm', 'z', 'x']",nmzxn,nm,True,HF-pattern,nm,True
846,2013-02-06 00:00:00,S01,z,z,0.321278095245,0,1,1,772,10,5,random,"['n', 'm', 'z', 'x']",nmzxn,mz,True,HF-random,mm,False
847,2013-02-06 00:00:00,S01,z,z,0.301660060883,0,1,1,773,10,5,pattern,"['n', 'm', 'z', 'x']",nmzxn,mz,True,HF-pattern,mz,True
848,2013-02-06 00:00:00,S01,n,n,0.346909999847,0,1,1,774,10,5,random,"['n', 'm', 'z', 'x']",nmzxn,zn,False,LF-random,zz,False
849,2013-02-06 00:00:00,S01,x,x,0.374262094498,0,1,1,775,10,5,pattern,"['n', 'm', 'z', 'x']",nmzxn,zx,True,HF-pattern,zn,False
850,2013-02-06 00:00:00,S01,n,n,0.320873975754,0,1,1,776,10,5,random,"['n', 'm', 'z', 'x']",nmzxn,nn,False,LF-random,nx,True
851,2013-02-06 00:00:00,S01,n,n,0.36484003067000004,0,1,1,777,10,5,pattern,"['n', 'm', 'z', 'x']",nmzxn,xn,True,HF-pattern,xn,True
852,2013-02-06 00:00:00,S01,x,x,0.423749923706,0,1,1,778,10,5,random,"['n', 'm', 'z', 'x']",nmzxn,nx,False,LF-random,nn,False
853,2013-02-06 00:00:00,S01,m,m,0.335435152054,0,1,1,779,10,5,pattern,"['n', 'm', 'z', 'x']",nmzxn,nm,True,HF-pattern,nx,False
854,2013-02-06 00:00:00,S01,x,x,0.299639940262,0,1,1,780,10,5,random,"['n', 'm', 'z', 'x']",nmzxn,xx,False,LF-random,xm,True
855,2013-02-06 00:00:00,S01,z,z,0.28019714355500003,0,1,1,781,10,5,pattern,"['n', 'm', 'z', 'x']",nmzxn,mz,True,HF-pattern,mx,False
856,2013-02-06 00:00:00,S01,x,x,0.27838492393500003,0,1,1,782,10,5,random,"['n', 'm', 'z', 'x']",nmzxn,xx,False,LF-random,xz,True
857,2013-02-06 00:00:00,S01,x,x,0.292562961578,0,1,1,783,10,5,pattern,"['n', 'm', 'z', 'x']",nmzxn,zx,True,HF-pattern,zx,True
858,2013-02-06 00:00:00,S01,x,x,0.306871891022,0,1,1,784,10,5,random,"['n', 'm', 'z', 'x']",nmzxn,xx,False,LF-random,xx,True
859,2013-02-06 00:00:00,S01,n,n,0.33557581901600003,0,1,1,785,10,5,pattern,"['n', 'm', 'z', 'x']",nmzxn,xn,True,HF-pattern,xx,False
860,2013-02-06 00:00:00,S01,z,x,0.299625873566,0,1,0,786,10,5,random,"['n', 'm', 'z', 'x']",nmzxn,xz,False,LF-random,xn,False
862,2013-02-06 00:00:00,S01,m,m,0.298990011215,0,1,1,787,10,5,pattern,"['n', 'm', 'z', 'x']",nmzxn,nm,True,HF-pattern,nz,False
863,2013-02-06 00:00:00,S01,x,x,0.296485900879,0,1,1,788,10,5,random,"['n', 'm', 'z', 'x']",nmzxn,zx,True,HF-random,zm,False
864,2013-02-06 00:00:00,S01,z,z,0.293740987778,0,1,1,789,10,5,pattern,"['n', 'm', 'z', 'x']",nmzxn,mz,True,HF-pattern,mx,False
865,2013-02-06 00:00:00,S01,n,n,0.388414859772,0,1,1,790,10,5,random,"['n', 'm', 'z', 'x']",nmzxn,xn,True,HF-random,xz,False
866,2013-02-06 00:00:00,S01,x,x,0.285177946091,0,1,1,791,10,5,pattern,"['n', 'm', 'z', 'x']",nmzxn,zx,True,HF-pattern,zn,False
867,2013-02-06 00:00:00,S01,z,z,0.299527168274,0,1,1,792,10,5,random,"['n', 'm', 'z', 'x']",nmzxn,nz,False,LF-random,nx,False
