,date,sid,circle_key,key_pressed,RT,KDS-exclude,attempt_no,isCorrect,trial,block,gblocks,type,pattern,combos,shifted,high-freq,f_type,previous_two,isRep
3142,2012-10-24 00:00:00,S04,x,x,0.502242088318,0,1,1,1,1,1,pattern,"['x', 'm', 'n', 'z']",xmnzx,,False,LF-random,,False
3143,2012-10-24 00:00:00,S04,m,m,0.348619937897,0,1,1,2,1,1,random,"['x', 'm', 'n', 'z']",xmnzx,,False,LF-random,,False
3144,2012-10-24 00:00:00,S04,m,m,0.31249094009399997,0,1,1,3,1,1,pattern,"['x', 'm', 'n', 'z']",xmnzx,xm,True,HF-pattern,xm,True
3145,2012-10-24 00:00:00,S04,x,x,0.342540979385,0,1,1,4,1,1,random,"['x', 'm', 'n', 'z']",xmnzx,mx,False,LF-random,mm,False
3146,2012-10-24 00:00:00,S04,n,n,0.419384002686,0,1,1,5,1,1,pattern,"['x', 'm', 'n', 'z']",xmnzx,mn,True,HF-pattern,mx,False
3147,2012-10-24 00:00:00,S04,n,n,0.348210811615,0,1,1,6,1,1,random,"['x', 'm', 'n', 'z']",xmnzx,xn,False,LF-random,xn,True
3148,2012-10-24 00:00:00,S04,z,z,0.376368999481,0,1,1,7,1,1,pattern,"['x', 'm', 'n', 'z']",xmnzx,nz,True,HF-pattern,nn,False
3149,2012-10-24 00:00:00,S04,z,z,0.307599067688,0,1,1,8,1,1,random,"['x', 'm', 'n', 'z']",xmnzx,nz,True,HF-random,nz,True
3150,2012-10-24 00:00:00,S04,x,x,0.337707042694,0,1,1,9,1,1,pattern,"['x', 'm', 'n', 'z']",xmnzx,zx,True,HF-pattern,zz,False
3151,2012-10-24 00:00:00,S04,m,m,0.302357912064,0,1,1,10,1,1,random,"['x', 'm', 'n', 'z']",xmnzx,zm,False,LF-random,zx,False
3152,2012-10-24 00:00:00,S04,m,m,0.39624094963100004,0,1,1,11,1,1,pattern,"['x', 'm', 'n', 'z']",xmnzx,xm,True,HF-pattern,xm,True
3153,2012-10-24 00:00:00,S04,x,x,0.31115913391100003,0,1,1,12,1,1,random,"['x', 'm', 'n', 'z']",xmnzx,mx,False,LF-random,mm,False
3154,2012-10-24 00:00:00,S04,n,n,0.388827800751,0,1,1,13,1,1,pattern,"['x', 'm', 'n', 'z']",xmnzx,mn,True,HF-pattern,mx,False
3155,2012-10-24 00:00:00,S04,n,n,0.431364059448,0,1,1,14,1,1,random,"['x', 'm', 'n', 'z']",xmnzx,xn,False,LF-random,xn,True
3156,2012-10-24 00:00:00,S04,z,z,0.37642288208,0,1,1,15,1,1,pattern,"['x', 'm', 'n', 'z']",xmnzx,nz,True,HF-pattern,nn,False
3157,2012-10-24 00:00:00,S04,z,z,0.35527491569499997,0,1,1,16,1,1,random,"['x', 'm', 'n', 'z']",xmnzx,nz,True,HF-random,nz,True
3158,2012-10-24 00:00:00,S04,x,x,0.31987404823300003,0,1,1,17,1,1,pattern,"['x', 'm', 'n', 'z']",xmnzx,zx,True,HF-pattern,zz,False
3159,2012-10-24 00:00:00,S04,m,m,0.364833831787,0,1,1,18,1,1,random,"['x', 'm', 'n', 'z']",xmnzx,zm,False,LF-random,zx,False
3160,2012-10-24 00:00:00,S04,m,m,0.408160924911,0,1,1,19,1,1,pattern,"['x', 'm', 'n', 'z']",xmnzx,xm,True,HF-pattern,xm,True
3161,2012-10-24 00:00:00,S04,x,x,0.401719093323,0,1,1,20,1,1,random,"['x', 'm', 'n', 'z']",xmnzx,mx,False,LF-random,mm,False
3162,2012-10-24 00:00:00,S04,n,n,0.332104921341,0,1,1,21,1,1,pattern,"['x', 'm', 'n', 'z']",xmnzx,mn,True,HF-pattern,mx,False
3163,2012-10-24 00:00:00,S04,n,n,0.40856695175200003,0,1,1,22,1,1,random,"['x', 'm', 'n', 'z']",xmnzx,xn,False,LF-random,xn,True
3164,2012-10-24 00:00:00,S04,z,z,0.306878089905,0,1,1,23,1,1,pattern,"['x', 'm', 'n', 'z']",xmnzx,nz,True,HF-pattern,nn,False
3165,2012-10-24 00:00:00,S04,z,z,0.43233895301799996,0,1,1,24,1,1,random,"['x', 'm', 'n', 'z']",xmnzx,nz,True,HF-random,nz,True
3166,2012-10-24 00:00:00,S04,x,x,0.393573999405,0,1,1,25,1,1,pattern,"['x', 'm', 'n', 'z']",xmnzx,zx,True,HF-pattern,zz,False
3167,2012-10-24 00:00:00,S04,m,m,0.37175798416100003,0,1,1,26,1,1,random,"['x', 'm', 'n', 'z']",xmnzx,zm,False,LF-random,zx,False
3168,2012-10-24 00:00:00,S04,m,m,0.367548942566,0,1,1,27,1,1,pattern,"['x', 'm', 'n', 'z']",xmnzx,xm,True,HF-pattern,xm,True
3169,2012-10-24 00:00:00,S04,x,x,0.362268924713,0,1,1,28,1,1,random,"['x', 'm', 'n', 'z']",xmnzx,mx,False,LF-random,mm,False
3170,2012-10-24 00:00:00,S04,n,m,0.342148065567,0,1,0,29,1,1,pattern,"['x', 'm', 'n', 'z']",xmnzx,mn,True,HF-pattern,mx,False
3172,2012-10-24 00:00:00,S04,n,n,0.438894033432,0,1,1,30,1,1,random,"['x', 'm', 'n', 'z']",xmnzx,xn,False,LF-random,xn,True
3173,2012-10-24 00:00:00,S04,z,z,0.39903998374899996,0,1,1,31,1,1,pattern,"['x', 'm', 'n', 'z']",xmnzx,nz,True,HF-pattern,nn,False
3174,2012-10-24 00:00:00,S04,z,z,0.32934498786899996,0,1,1,32,1,1,random,"['x', 'm', 'n', 'z']",xmnzx,nz,True,HF-random,nz,True
3175,2012-10-24 00:00:00,S04,x,x,0.35855388641400004,0,1,1,33,1,1,pattern,"['x', 'm', 'n', 'z']",xmnzx,zx,True,HF-pattern,zz,False
3176,2012-10-24 00:00:00,S04,m,m,0.386954069138,0,1,1,34,1,1,random,"['x', 'm', 'n', 'z']",xmnzx,zm,False,LF-random,zx,False
3177,2012-10-24 00:00:00,S04,m,m,0.300884962082,0,1,1,35,1,1,pattern,"['x', 'm', 'n', 'z']",xmnzx,xm,True,HF-pattern,xm,True
3178,2012-10-24 00:00:00,S04,x,x,0.459459066391,0,1,1,36,1,1,random,"['x', 'm', 'n', 'z']",xmnzx,mx,False,LF-random,mm,False
3179,2012-10-24 00:00:00,S04,n,n,0.322829961777,0,1,1,37,1,1,pattern,"['x', 'm', 'n', 'z']",xmnzx,mn,True,HF-pattern,mx,False
3180,2012-10-24 00:00:00,S04,n,n,0.416595935822,0,1,1,38,1,1,random,"['x', 'm', 'n', 'z']",xmnzx,xn,False,LF-random,xn,True
3181,2012-10-24 00:00:00,S04,z,z,0.34544301033,0,1,1,39,1,1,pattern,"['x', 'm', 'n', 'z']",xmnzx,nz,True,HF-pattern,nn,False
3182,2012-10-24 00:00:00,S04,z,z,0.374691963196,0,1,1,40,1,1,random,"['x', 'm', 'n', 'z']",xmnzx,nz,True,HF-random,nz,True
3183,2012-10-24 00:00:00,S04,x,x,0.353360891342,0,1,1,41,1,1,pattern,"['x', 'm', 'n', 'z']",xmnzx,zx,True,HF-pattern,zz,False
3184,2012-10-24 00:00:00,S04,m,m,0.349927186966,0,1,1,42,1,1,random,"['x', 'm', 'n', 'z']",xmnzx,zm,False,LF-random,zx,False
3185,2012-10-24 00:00:00,S04,m,m,0.281399965286,0,1,1,43,1,1,pattern,"['x', 'm', 'n', 'z']",xmnzx,xm,True,HF-pattern,xm,True
3186,2012-10-24 00:00:00,S04,x,x,0.39252495765699996,0,1,1,44,1,1,random,"['x', 'm', 'n', 'z']",xmnzx,mx,False,LF-random,mm,False
3187,2012-10-24 00:00:00,S04,n,n,0.338783979416,0,1,1,45,1,1,pattern,"['x', 'm', 'n', 'z']",xmnzx,mn,True,HF-pattern,mx,False
3188,2012-10-24 00:00:00,S04,n,n,0.463978052139,0,1,1,46,1,1,random,"['x', 'm', 'n', 'z']",xmnzx,xn,False,LF-random,xn,True
3189,2012-10-24 00:00:00,S04,z,z,0.358860969543,0,1,1,47,1,1,pattern,"['x', 'm', 'n', 'z']",xmnzx,nz,True,HF-pattern,nn,False
3190,2012-10-24 00:00:00,S04,z,z,0.275110006332,0,1,1,48,1,1,random,"['x', 'm', 'n', 'z']",xmnzx,nz,True,HF-random,nz,True
3191,2012-10-24 00:00:00,S04,x,x,0.35397410392800005,0,1,1,49,1,1,pattern,"['x', 'm', 'n', 'z']",xmnzx,zx,True,HF-pattern,zz,False
3192,2012-10-24 00:00:00,S04,m,m,0.398398160934,0,1,1,50,1,1,random,"['x', 'm', 'n', 'z']",xmnzx,zm,False,LF-random,zx,False
3193,2012-10-24 00:00:00,S04,m,m,0.375880002975,0,1,1,51,1,1,pattern,"['x', 'm', 'n', 'z']",xmnzx,xm,True,HF-pattern,xm,True
3194,2012-10-24 00:00:00,S04,x,x,0.355765104294,0,1,1,52,1,1,random,"['x', 'm', 'n', 'z']",xmnzx,mx,False,LF-random,mm,False
3195,2012-10-24 00:00:00,S04,n,n,0.607450008392,0,1,1,53,1,1,pattern,"['x', 'm', 'n', 'z']",xmnzx,mn,True,HF-pattern,mx,False
3196,2012-10-24 00:00:00,S04,n,n,0.36920094490099997,0,1,1,54,1,1,random,"['x', 'm', 'n', 'z']",xmnzx,xn,False,LF-random,xn,True
3197,2012-10-24 00:00:00,S04,z,z,0.365164041519,0,1,1,55,1,1,pattern,"['x', 'm', 'n', 'z']",xmnzx,nz,True,HF-pattern,nn,False
3198,2012-10-24 00:00:00,S04,z,z,0.311990976334,0,1,1,56,1,1,random,"['x', 'm', 'n', 'z']",xmnzx,nz,True,HF-random,nz,True
3199,2012-10-24 00:00:00,S04,x,x,0.31042098999,0,1,1,57,1,1,pattern,"['x', 'm', 'n', 'z']",xmnzx,zx,True,HF-pattern,zz,False
3200,2012-10-24 00:00:00,S04,m,x,0.212316989899,0,1,0,58,1,1,random,"['x', 'm', 'n', 'z']",xmnzx,zm,False,LF-random,zx,False
3202,2012-10-24 00:00:00,S04,m,m,0.34657788276699997,0,1,1,59,1,1,pattern,"['x', 'm', 'n', 'z']",xmnzx,xm,True,HF-pattern,xm,True
3203,2012-10-24 00:00:00,S04,x,x,0.421816825867,0,1,1,60,1,1,random,"['x', 'm', 'n', 'z']",xmnzx,mx,False,LF-random,mm,False
3204,2012-10-24 00:00:00,S04,n,n,0.6394588947300001,0,1,1,61,1,1,pattern,"['x', 'm', 'n', 'z']",xmnzx,mn,True,HF-pattern,mx,False
3205,2012-10-24 00:00:00,S04,n,n,0.30459284782400003,0,1,1,62,1,1,random,"['x', 'm', 'n', 'z']",xmnzx,xn,False,LF-random,xn,True
3206,2012-10-24 00:00:00,S04,z,z,0.366183996201,0,1,1,63,1,1,pattern,"['x', 'm', 'n', 'z']",xmnzx,nz,True,HF-pattern,nn,False
3207,2012-10-24 00:00:00,S04,z,z,0.377610206604,0,1,1,64,1,1,random,"['x', 'm', 'n', 'z']",xmnzx,nz,True,HF-random,nz,True
3208,2012-10-24 00:00:00,S04,x,x,0.580492973328,0,1,1,65,1,1,pattern,"['x', 'm', 'n', 'z']",xmnzx,zx,True,HF-pattern,zz,False
3209,2012-10-24 00:00:00,S04,m,m,0.45562100410499995,0,1,1,66,1,1,random,"['x', 'm', 'n', 'z']",xmnzx,zm,False,LF-random,zx,False
3210,2012-10-24 00:00:00,S04,m,m,0.463163137436,0,1,1,67,1,1,pattern,"['x', 'm', 'n', 'z']",xmnzx,xm,True,HF-pattern,xm,True
3211,2012-10-24 00:00:00,S04,x,x,0.342797994614,0,1,1,68,1,1,random,"['x', 'm', 'n', 'z']",xmnzx,mx,False,LF-random,mm,False
3212,2012-10-24 00:00:00,S04,n,n,0.37154793739299996,0,1,1,69,1,1,pattern,"['x', 'm', 'n', 'z']",xmnzx,mn,True,HF-pattern,mx,False
3213,2012-10-24 00:00:00,S04,n,n,0.334827899933,0,1,1,70,1,1,random,"['x', 'm', 'n', 'z']",xmnzx,xn,False,LF-random,xn,True
3214,2012-10-24 00:00:00,S04,z,z,0.37938594818099997,0,1,1,71,1,1,pattern,"['x', 'm', 'n', 'z']",xmnzx,nz,True,HF-pattern,nn,False
3215,2012-10-24 00:00:00,S04,z,z,0.342759132385,0,1,1,72,1,1,random,"['x', 'm', 'n', 'z']",xmnzx,nz,True,HF-random,nz,True
3216,2012-10-24 00:00:00,S04,x,x,0.323453187943,0,1,1,73,1,1,pattern,"['x', 'm', 'n', 'z']",xmnzx,zx,True,HF-pattern,zz,False
3217,2012-10-24 00:00:00,S04,m,m,0.320852041245,0,1,1,74,1,1,random,"['x', 'm', 'n', 'z']",xmnzx,zm,False,LF-random,zx,False
3218,2012-10-24 00:00:00,S04,m,m,0.349792003632,0,1,1,75,1,1,pattern,"['x', 'm', 'n', 'z']",xmnzx,xm,True,HF-pattern,xm,True
3219,2012-10-24 00:00:00,S04,x,x,0.33004784584,0,1,1,76,1,1,random,"['x', 'm', 'n', 'z']",xmnzx,mx,False,LF-random,mm,False
3220,2012-10-24 00:00:00,S04,n,n,0.34239983558700005,0,1,1,77,1,1,pattern,"['x', 'm', 'n', 'z']",xmnzx,mn,True,HF-pattern,mx,False
3221,2012-10-24 00:00:00,S04,n,n,0.37161612510700004,0,1,1,78,1,1,random,"['x', 'm', 'n', 'z']",xmnzx,xn,False,LF-random,xn,True
3222,2012-10-24 00:00:00,S04,z,z,0.334228038788,0,1,1,79,1,1,pattern,"['x', 'm', 'n', 'z']",xmnzx,nz,True,HF-pattern,nn,False
3223,2012-10-24 00:00:00,S04,z,z,0.443495035172,0,1,1,80,1,1,random,"['x', 'm', 'n', 'z']",xmnzx,nz,True,HF-random,nz,True
3224,2012-10-24 00:00:00,S04,x,x,0.2508289814,0,1,1,81,2,1,pattern,"['x', 'm', 'n', 'z']",xmnzx,zx,True,HF-pattern,zz,False
3225,2012-10-24 00:00:00,S04,m,m,0.299170017242,0,1,1,82,2,1,random,"['x', 'm', 'n', 'z']",xmnzx,zm,False,LF-random,zx,False
3226,2012-10-24 00:00:00,S04,m,m,0.280493974686,0,1,1,83,2,1,pattern,"['x', 'm', 'n', 'z']",xmnzx,xm,True,HF-pattern,xm,True
3227,2012-10-24 00:00:00,S04,x,x,0.247716188431,0,1,1,84,2,1,random,"['x', 'm', 'n', 'z']",xmnzx,mx,False,LF-random,mm,False
3228,2012-10-24 00:00:00,S04,n,b,0.311825990677,0,1,0,85,2,1,pattern,"['x', 'm', 'n', 'z']",xmnzx,mn,True,HF-pattern,mx,False
3231,2012-10-24 00:00:00,S04,n,n,0.30340194702100004,0,1,1,86,2,1,random,"['x', 'm', 'n', 'z']",xmnzx,xn,False,LF-random,xn,True
3232,2012-10-24 00:00:00,S04,z,z,0.301625013351,0,1,1,87,2,1,pattern,"['x', 'm', 'n', 'z']",xmnzx,nz,True,HF-pattern,nn,False
3233,2012-10-24 00:00:00,S04,z,z,0.23554801940900003,0,1,1,88,2,1,random,"['x', 'm', 'n', 'z']",xmnzx,nz,True,HF-random,nz,True
3234,2012-10-24 00:00:00,S04,x,m,0.25199913978599997,0,1,0,89,2,1,pattern,"['x', 'm', 'n', 'z']",xmnzx,zx,True,HF-pattern,zz,False
3236,2012-10-24 00:00:00,S04,m,m,0.265468120575,0,1,1,90,2,1,random,"['x', 'm', 'n', 'z']",xmnzx,zm,False,LF-random,zx,False
3237,2012-10-24 00:00:00,S04,m,m,0.31251001358,0,1,1,91,2,1,pattern,"['x', 'm', 'n', 'z']",xmnzx,xm,True,HF-pattern,xm,True
3238,2012-10-24 00:00:00,S04,x,m,0.182899951935,0,1,0,92,2,1,random,"['x', 'm', 'n', 'z']",xmnzx,mx,False,LF-random,mm,False
3240,2012-10-24 00:00:00,S04,n,n,0.259243011475,0,1,1,93,2,1,pattern,"['x', 'm', 'n', 'z']",xmnzx,mn,True,HF-pattern,mx,False
3241,2012-10-24 00:00:00,S04,n,m,0.147478818893,0,1,0,94,2,1,random,"['x', 'm', 'n', 'z']",xmnzx,xn,False,LF-random,xn,True
3243,2012-10-24 00:00:00,S04,z,z,0.359138965607,0,1,1,95,2,1,pattern,"['x', 'm', 'n', 'z']",xmnzx,nz,True,HF-pattern,nn,False
3244,2012-10-24 00:00:00,S04,z,z,0.29155397415199996,0,1,1,96,2,1,random,"['x', 'm', 'n', 'z']",xmnzx,nz,True,HF-random,nz,True
3245,2012-10-24 00:00:00,S04,x,x,0.274107933044,0,1,1,97,2,1,pattern,"['x', 'm', 'n', 'z']",xmnzx,zx,True,HF-pattern,zz,False
3246,2012-10-24 00:00:00,S04,m,m,0.321530103683,0,1,1,98,2,1,random,"['x', 'm', 'n', 'z']",xmnzx,zm,False,LF-random,zx,False
3247,2012-10-24 00:00:00,S04,m,m,0.334367990494,0,1,1,99,2,1,pattern,"['x', 'm', 'n', 'z']",xmnzx,xm,True,HF-pattern,xm,True
3248,2012-10-24 00:00:00,S04,x,x,0.251540899277,0,1,1,100,2,1,random,"['x', 'm', 'n', 'z']",xmnzx,mx,False,LF-random,mm,False
3249,2012-10-24 00:00:00,S04,n,x,0.187361001968,0,1,0,101,2,1,pattern,"['x', 'm', 'n', 'z']",xmnzx,mn,True,HF-pattern,mx,False
3251,2012-10-24 00:00:00,S04,n,n,0.311496019363,0,1,1,102,2,1,random,"['x', 'm', 'n', 'z']",xmnzx,xn,False,LF-random,xn,True
3252,2012-10-24 00:00:00,S04,z,z,0.309293031693,0,1,1,103,2,1,pattern,"['x', 'm', 'n', 'z']",xmnzx,nz,True,HF-pattern,nn,False
3253,2012-10-24 00:00:00,S04,z,z,0.243095874786,0,1,1,104,2,1,random,"['x', 'm', 'n', 'z']",xmnzx,nz,True,HF-random,nz,True
3254,2012-10-24 00:00:00,S04,x,x,0.324023008347,0,1,1,105,2,1,pattern,"['x', 'm', 'n', 'z']",xmnzx,zx,True,HF-pattern,zz,False
3255,2012-10-24 00:00:00,S04,m,m,0.304970979691,0,1,1,106,2,1,random,"['x', 'm', 'n', 'z']",xmnzx,zm,False,LF-random,zx,False
3256,2012-10-24 00:00:00,S04,m,m,0.35139799118,0,1,1,107,2,1,pattern,"['x', 'm', 'n', 'z']",xmnzx,xm,True,HF-pattern,xm,True
3257,2012-10-24 00:00:00,S04,x,x,0.250915050507,0,1,1,108,2,1,random,"['x', 'm', 'n', 'z']",xmnzx,mx,False,LF-random,mm,False
3258,2012-10-24 00:00:00,S04,n,n,0.283425092697,0,1,1,109,2,1,pattern,"['x', 'm', 'n', 'z']",xmnzx,mn,True,HF-pattern,mx,False
3259,2012-10-24 00:00:00,S04,n,n,0.361840963364,0,1,1,110,2,1,random,"['x', 'm', 'n', 'z']",xmnzx,xn,False,LF-random,xn,True
3260,2012-10-24 00:00:00,S04,z,z,0.374117136002,0,1,1,111,2,1,pattern,"['x', 'm', 'n', 'z']",xmnzx,nz,True,HF-pattern,nn,False
3261,2012-10-24 00:00:00,S04,z,z,0.20940613746599998,0,1,1,112,2,1,random,"['x', 'm', 'n', 'z']",xmnzx,nz,True,HF-random,nz,True
3262,2012-10-24 00:00:00,S04,x,x,0.338963985443,0,1,1,113,2,1,pattern,"['x', 'm', 'n', 'z']",xmnzx,zx,True,HF-pattern,zz,False
3263,2012-10-24 00:00:00,S04,m,m,0.335853815079,0,1,1,114,2,1,random,"['x', 'm', 'n', 'z']",xmnzx,zm,False,LF-random,zx,False
3264,2012-10-24 00:00:00,S04,m,m,0.31622695922899996,0,1,1,115,2,1,pattern,"['x', 'm', 'n', 'z']",xmnzx,xm,True,HF-pattern,xm,True
3265,2012-10-24 00:00:00,S04,x,x,0.28181219101,0,1,1,116,2,1,random,"['x', 'm', 'n', 'z']",xmnzx,mx,False,LF-random,mm,False
3266,2012-10-24 00:00:00,S04,n,n,0.296026945114,0,1,1,117,2,1,pattern,"['x', 'm', 'n', 'z']",xmnzx,mn,True,HF-pattern,mx,False
3267,2012-10-24 00:00:00,S04,n,m,0.214684009552,0,1,0,118,2,1,random,"['x', 'm', 'n', 'z']",xmnzx,xn,False,LF-random,xn,True
3269,2012-10-24 00:00:00,S04,z,z,0.380200147629,0,1,1,119,2,1,pattern,"['x', 'm', 'n', 'z']",xmnzx,nz,True,HF-pattern,nn,False
3270,2012-10-24 00:00:00,S04,z,z,0.27925992012,0,1,1,120,2,1,random,"['x', 'm', 'n', 'z']",xmnzx,nz,True,HF-random,nz,True
3271,2012-10-24 00:00:00,S04,x,n,0.309985876083,0,1,0,121,2,1,pattern,"['x', 'm', 'n', 'z']",xmnzx,zx,True,HF-pattern,zz,False
3273,2012-10-24 00:00:00,S04,m,n,0.9820079803470001,0,1,0,122,2,1,random,"['x', 'm', 'n', 'z']",xmnzx,zm,False,LF-random,zx,False
3275,2012-10-24 00:00:00,S04,m,m,0.35167694091799995,0,1,1,123,2,1,pattern,"['x', 'm', 'n', 'z']",xmnzx,xm,True,HF-pattern,xm,True
3276,2012-10-24 00:00:00,S04,x,x,0.427406072617,0,1,1,124,2,1,random,"['x', 'm', 'n', 'z']",xmnzx,mx,False,LF-random,mm,False
3277,2012-10-24 00:00:00,S04,n,x,0.21167206764199997,0,1,0,125,2,1,pattern,"['x', 'm', 'n', 'z']",xmnzx,mn,True,HF-pattern,mx,False
3279,2012-10-24 00:00:00,S04,n,n,0.300781011581,0,1,1,126,2,1,random,"['x', 'm', 'n', 'z']",xmnzx,xn,False,LF-random,xn,True
3280,2012-10-24 00:00:00,S04,z,z,0.26725506782499997,0,1,1,127,2,1,pattern,"['x', 'm', 'n', 'z']",xmnzx,nz,True,HF-pattern,nn,False
3281,2012-10-24 00:00:00,S04,z,z,0.18637609481800002,0,1,1,128,2,1,random,"['x', 'm', 'n', 'z']",xmnzx,nz,True,HF-random,nz,True
3282,2012-10-24 00:00:00,S04,x,x,0.300455093384,0,1,1,129,2,1,pattern,"['x', 'm', 'n', 'z']",xmnzx,zx,True,HF-pattern,zz,False
3283,2012-10-24 00:00:00,S04,m,m,0.282955169678,0,1,1,130,2,1,random,"['x', 'm', 'n', 'z']",xmnzx,zm,False,LF-random,zx,False
3284,2012-10-24 00:00:00,S04,m,m,0.329232931137,0,1,1,131,2,1,pattern,"['x', 'm', 'n', 'z']",xmnzx,xm,True,HF-pattern,xm,True
3285,2012-10-24 00:00:00,S04,x,x,0.27895903587299997,0,1,1,132,2,1,random,"['x', 'm', 'n', 'z']",xmnzx,mx,False,LF-random,mm,False
3286,2012-10-24 00:00:00,S04,n,n,0.26209187507599996,0,1,1,133,2,1,pattern,"['x', 'm', 'n', 'z']",xmnzx,mn,True,HF-pattern,mx,False
3287,2012-10-24 00:00:00,S04,n,n,0.198225021362,0,1,1,134,2,1,random,"['x', 'm', 'n', 'z']",xmnzx,xn,False,LF-random,xn,True
3288,2012-10-24 00:00:00,S04,z,z,0.28017282486,0,1,1,135,2,1,pattern,"['x', 'm', 'n', 'z']",xmnzx,nz,True,HF-pattern,nn,False
3289,2012-10-24 00:00:00,S04,z,z,0.374403953552,0,1,1,136,2,1,random,"['x', 'm', 'n', 'z']",xmnzx,nz,True,HF-random,nz,True
3290,2012-10-24 00:00:00,S04,x,x,0.306516885757,0,1,1,137,2,1,pattern,"['x', 'm', 'n', 'z']",xmnzx,zx,True,HF-pattern,zz,False
3291,2012-10-24 00:00:00,S04,m,m,0.28766608238200003,0,1,1,138,2,1,random,"['x', 'm', 'n', 'z']",xmnzx,zm,False,LF-random,zx,False
3292,2012-10-24 00:00:00,S04,m,m,0.0948040485382,0,1,1,139,2,1,pattern,"['x', 'm', 'n', 'z']",xmnzx,xm,True,HF-pattern,xm,True
3293,2012-10-24 00:00:00,S04,x,x,0.501214027405,0,1,1,140,2,1,random,"['x', 'm', 'n', 'z']",xmnzx,mx,False,LF-random,mm,False
3294,2012-10-24 00:00:00,S04,n,n,0.299619913101,0,1,1,141,2,1,pattern,"['x', 'm', 'n', 'z']",xmnzx,mn,True,HF-pattern,mx,False
3295,2012-10-24 00:00:00,S04,n,n,0.057483911514300004,0,1,1,142,2,1,random,"['x', 'm', 'n', 'z']",xmnzx,xn,False,LF-random,xn,True
3296,2012-10-24 00:00:00,S04,z,z,0.257230997086,0,1,1,143,2,1,pattern,"['x', 'm', 'n', 'z']",xmnzx,nz,True,HF-pattern,nn,False
3297,2012-10-24 00:00:00,S04,z,z,0.32158899307300004,0,1,1,144,2,1,random,"['x', 'm', 'n', 'z']",xmnzx,nz,True,HF-random,nz,True
3298,2012-10-24 00:00:00,S04,x,x,0.254870891571,0,1,1,145,2,1,pattern,"['x', 'm', 'n', 'z']",xmnzx,zx,True,HF-pattern,zz,False
3299,2012-10-24 00:00:00,S04,m,x,0.0627670288086,0,1,0,146,2,1,random,"['x', 'm', 'n', 'z']",xmnzx,zm,False,LF-random,zx,False
3301,2012-10-24 00:00:00,S04,m,m,0.23620891571,0,1,1,147,2,1,pattern,"['x', 'm', 'n', 'z']",xmnzx,xm,True,HF-pattern,xm,True
3302,2012-10-24 00:00:00,S04,x,x,0.268201112747,0,1,1,148,2,1,random,"['x', 'm', 'n', 'z']",xmnzx,mx,False,LF-random,mm,False
3303,2012-10-24 00:00:00,S04,n,x,0.18834400177000002,0,1,0,149,2,1,pattern,"['x', 'm', 'n', 'z']",xmnzx,mn,True,HF-pattern,mx,False
3305,2012-10-24 00:00:00,S04,n,n,0.314549922943,0,1,1,150,2,1,random,"['x', 'm', 'n', 'z']",xmnzx,xn,False,LF-random,xn,True
3306,2012-10-24 00:00:00,S04,z,x,0.23205995559700002,0,1,0,151,2,1,pattern,"['x', 'm', 'n', 'z']",xmnzx,nz,True,HF-pattern,nn,False
3308,2012-10-24 00:00:00,S04,z,z,0.316190004349,0,1,1,152,2,1,random,"['x', 'm', 'n', 'z']",xmnzx,nz,True,HF-random,nz,True
3309,2012-10-24 00:00:00,S04,x,x,0.346141815186,0,1,1,153,2,1,pattern,"['x', 'm', 'n', 'z']",xmnzx,zx,True,HF-pattern,zz,False
3310,2012-10-24 00:00:00,S04,m,m,0.35815215110799997,0,1,1,154,2,1,random,"['x', 'm', 'n', 'z']",xmnzx,zm,False,LF-random,zx,False
3311,2012-10-24 00:00:00,S04,m,m,0.242676973343,0,1,1,155,2,1,pattern,"['x', 'm', 'n', 'z']",xmnzx,xm,True,HF-pattern,xm,True
3312,2012-10-24 00:00:00,S04,x,x,0.338916063309,0,1,1,156,2,1,random,"['x', 'm', 'n', 'z']",xmnzx,mx,False,LF-random,mm,False
3313,2012-10-24 00:00:00,S04,n,n,0.32009315490699997,0,1,1,157,2,1,pattern,"['x', 'm', 'n', 'z']",xmnzx,mn,True,HF-pattern,mx,False
3314,2012-10-24 00:00:00,S04,n,n,0.28502702713000005,0,1,1,158,2,1,random,"['x', 'm', 'n', 'z']",xmnzx,xn,False,LF-random,xn,True
3315,2012-10-24 00:00:00,S04,z,z,0.33193397522,0,1,1,159,2,1,pattern,"['x', 'm', 'n', 'z']",xmnzx,nz,True,HF-pattern,nn,False
3316,2012-10-24 00:00:00,S04,z,z,0.344587087631,0,1,1,160,2,1,random,"['x', 'm', 'n', 'z']",xmnzx,nz,True,HF-random,nz,True
3317,2012-10-24 00:00:00,S04,x,x,0.312295913696,0,1,1,161,3,1,pattern,"['x', 'm', 'n', 'z']",xmnzx,zx,True,HF-pattern,zz,False
3318,2012-10-24 00:00:00,S04,m,n,0.230134010315,0,1,0,162,3,1,random,"['x', 'm', 'n', 'z']",xmnzx,zm,False,LF-random,zx,False
3320,2012-10-24 00:00:00,S04,m,m,0.445532083511,0,1,1,163,3,1,pattern,"['x', 'm', 'n', 'z']",xmnzx,xm,True,HF-pattern,xm,True
3321,2012-10-24 00:00:00,S04,x,x,0.406332969666,0,1,1,164,3,1,random,"['x', 'm', 'n', 'z']",xmnzx,mx,False,LF-random,mm,False
3322,2012-10-24 00:00:00,S04,n,n,0.288242101669,0,1,1,165,3,1,pattern,"['x', 'm', 'n', 'z']",xmnzx,mn,True,HF-pattern,mx,False
3323,2012-10-24 00:00:00,S04,n,n,0.39894700050399995,0,1,1,166,3,1,random,"['x', 'm', 'n', 'z']",xmnzx,xn,False,LF-random,xn,True
3324,2012-10-24 00:00:00,S04,z,x,0.312844991684,0,1,0,167,3,1,pattern,"['x', 'm', 'n', 'z']",xmnzx,nz,True,HF-pattern,nn,False
3326,2012-10-24 00:00:00,S04,z,z,0.28293418884300003,0,1,1,168,3,1,random,"['x', 'm', 'n', 'z']",xmnzx,nz,True,HF-random,nz,True
3327,2012-10-24 00:00:00,S04,x,x,0.29699587821999995,0,1,1,169,3,1,pattern,"['x', 'm', 'n', 'z']",xmnzx,zx,True,HF-pattern,zz,False
3328,2012-10-24 00:00:00,S04,m,m,0.37555003166199996,0,1,1,170,3,1,random,"['x', 'm', 'n', 'z']",xmnzx,zm,False,LF-random,zx,False
3329,2012-10-24 00:00:00,S04,m,m,0.194869041443,0,1,1,171,3,1,pattern,"['x', 'm', 'n', 'z']",xmnzx,xm,True,HF-pattern,xm,True
3330,2012-10-24 00:00:00,S04,x,x,0.309583902359,0,1,1,172,3,1,random,"['x', 'm', 'n', 'z']",xmnzx,mx,False,LF-random,mm,False
3331,2012-10-24 00:00:00,S04,n,n,0.307550907135,0,1,1,173,3,1,pattern,"['x', 'm', 'n', 'z']",xmnzx,mn,True,HF-pattern,mx,False
3332,2012-10-24 00:00:00,S04,n,n,0.46519613266000004,0,1,1,174,3,1,random,"['x', 'm', 'n', 'z']",xmnzx,xn,False,LF-random,xn,True
3333,2012-10-24 00:00:00,S04,z,z,0.328855991364,0,1,1,175,3,1,pattern,"['x', 'm', 'n', 'z']",xmnzx,nz,True,HF-pattern,nn,False
3334,2012-10-24 00:00:00,S04,z,z,0.198144197464,0,1,1,176,3,1,random,"['x', 'm', 'n', 'z']",xmnzx,nz,True,HF-random,nz,True
3335,2012-10-24 00:00:00,S04,x,x,0.328155994415,0,1,1,177,3,1,pattern,"['x', 'm', 'n', 'z']",xmnzx,zx,True,HF-pattern,zz,False
3336,2012-10-24 00:00:00,S04,m,m,0.309070825577,0,1,1,178,3,1,random,"['x', 'm', 'n', 'z']",xmnzx,zm,False,LF-random,zx,False
3337,2012-10-24 00:00:00,S04,m,m,0.11549592018100001,0,1,1,179,3,1,pattern,"['x', 'm', 'n', 'z']",xmnzx,xm,True,HF-pattern,xm,True
3338,2012-10-24 00:00:00,S04,x,x,0.37649703025799997,0,1,1,180,3,1,random,"['x', 'm', 'n', 'z']",xmnzx,mx,False,LF-random,mm,False
3339,2012-10-24 00:00:00,S04,n,n,0.276349067688,0,1,1,181,3,1,pattern,"['x', 'm', 'n', 'z']",xmnzx,mn,True,HF-pattern,mx,False
3340,2012-10-24 00:00:00,S04,n,n,0.083459854126,0,1,1,182,3,1,random,"['x', 'm', 'n', 'z']",xmnzx,xn,False,LF-random,xn,True
3341,2012-10-24 00:00:00,S04,z,z,0.329471111298,0,1,1,183,3,1,pattern,"['x', 'm', 'n', 'z']",xmnzx,nz,True,HF-pattern,nn,False
3342,2012-10-24 00:00:00,S04,z,z,0.27867317199700004,0,1,1,184,3,1,random,"['x', 'm', 'n', 'z']",xmnzx,nz,True,HF-random,nz,True
3343,2012-10-24 00:00:00,S04,x,x,0.3098320961,0,1,1,185,3,1,pattern,"['x', 'm', 'n', 'z']",xmnzx,zx,True,HF-pattern,zz,False
3344,2012-10-24 00:00:00,S04,m,m,0.308068990707,0,1,1,186,3,1,random,"['x', 'm', 'n', 'z']",xmnzx,zm,False,LF-random,zx,False
3345,2012-10-24 00:00:00,S04,m,m,0.0499320030212,0,1,1,187,3,1,pattern,"['x', 'm', 'n', 'z']",xmnzx,xm,True,HF-pattern,xm,True
3346,2012-10-24 00:00:00,S04,x,x,0.37750697135899997,0,1,1,188,3,1,random,"['x', 'm', 'n', 'z']",xmnzx,mx,False,LF-random,mm,False
3347,2012-10-24 00:00:00,S04,n,n,0.357351779938,0,1,1,189,3,1,pattern,"['x', 'm', 'n', 'z']",xmnzx,mn,True,HF-pattern,mx,False
3348,2012-10-24 00:00:00,S04,n,n,0.08145594596860001,0,1,1,190,3,1,random,"['x', 'm', 'n', 'z']",xmnzx,xn,False,LF-random,xn,True
3349,2012-10-24 00:00:00,S04,z,z,0.295805931091,0,1,1,191,3,1,pattern,"['x', 'm', 'n', 'z']",xmnzx,nz,True,HF-pattern,nn,False
3350,2012-10-24 00:00:00,S04,z,z,0.342529058456,0,1,1,192,3,1,random,"['x', 'm', 'n', 'z']",xmnzx,nz,True,HF-random,nz,True
3351,2012-10-24 00:00:00,S04,x,x,0.30676817894,0,1,1,193,3,1,pattern,"['x', 'm', 'n', 'z']",xmnzx,zx,True,HF-pattern,zz,False
3352,2012-10-24 00:00:00,S04,m,x,0.145221948624,0,1,0,194,3,1,random,"['x', 'm', 'n', 'z']",xmnzx,zm,False,LF-random,zx,False
3354,2012-10-24 00:00:00,S04,m,m,0.140105009079,0,1,1,195,3,1,pattern,"['x', 'm', 'n', 'z']",xmnzx,xm,True,HF-pattern,xm,True
3355,2012-10-24 00:00:00,S04,x,x,0.369215011597,0,1,1,196,3,1,random,"['x', 'm', 'n', 'z']",xmnzx,mx,False,LF-random,mm,False
3356,2012-10-24 00:00:00,S04,n,n,0.396028995514,0,1,1,197,3,1,pattern,"['x', 'm', 'n', 'z']",xmnzx,mn,True,HF-pattern,mx,False
3357,2012-10-24 00:00:00,S04,n,n,0.326641082764,0,1,1,198,3,1,random,"['x', 'm', 'n', 'z']",xmnzx,xn,False,LF-random,xn,True
3358,2012-10-24 00:00:00,S04,z,z,0.33928489685099994,0,1,1,199,3,1,pattern,"['x', 'm', 'n', 'z']",xmnzx,nz,True,HF-pattern,nn,False
3359,2012-10-24 00:00:00,S04,z,z,0.112434148788,0,1,1,200,3,1,random,"['x', 'm', 'n', 'z']",xmnzx,nz,True,HF-random,nz,True
3360,2012-10-24 00:00:00,S04,x,x,0.294461965561,0,1,1,201,3,1,pattern,"['x', 'm', 'n', 'z']",xmnzx,zx,True,HF-pattern,zz,False
3361,2012-10-24 00:00:00,S04,m,m,0.356740951538,0,1,1,202,3,1,random,"['x', 'm', 'n', 'z']",xmnzx,zm,False,LF-random,zx,False
3362,2012-10-24 00:00:00,S04,m,m,0.0491211414337,0,1,1,203,3,1,pattern,"['x', 'm', 'n', 'z']",xmnzx,xm,True,HF-pattern,xm,True
3363,2012-10-24 00:00:00,S04,x,x,0.440721988678,0,1,1,204,3,1,random,"['x', 'm', 'n', 'z']",xmnzx,mx,False,LF-random,mm,False
3364,2012-10-24 00:00:00,S04,n,x,0.0817620754242,0,1,0,205,3,1,pattern,"['x', 'm', 'n', 'z']",xmnzx,mn,True,HF-pattern,mx,False
3366,2012-10-24 00:00:00,S04,n,n,0.330044031143,0,1,1,206,3,1,random,"['x', 'm', 'n', 'z']",xmnzx,xn,False,LF-random,xn,True
3367,2012-10-24 00:00:00,S04,z,z,0.358972072601,0,1,1,207,3,1,pattern,"['x', 'm', 'n', 'z']",xmnzx,nz,True,HF-pattern,nn,False
3368,2012-10-24 00:00:00,S04,z,z,0.179060220718,0,1,1,208,3,1,random,"['x', 'm', 'n', 'z']",xmnzx,nz,True,HF-random,nz,True
3369,2012-10-24 00:00:00,S04,x,x,0.310435056686,0,1,1,209,3,1,pattern,"['x', 'm', 'n', 'z']",xmnzx,zx,True,HF-pattern,zz,False
3370,2012-10-24 00:00:00,S04,m,x,0.10044813156099999,0,1,0,210,3,1,random,"['x', 'm', 'n', 'z']",xmnzx,zm,False,LF-random,zx,False
3372,2012-10-24 00:00:00,S04,m,m,0.207699775696,0,1,1,211,3,1,pattern,"['x', 'm', 'n', 'z']",xmnzx,xm,True,HF-pattern,xm,True
3373,2012-10-24 00:00:00,S04,x,x,0.273633956909,0,1,1,212,3,1,random,"['x', 'm', 'n', 'z']",xmnzx,mx,False,LF-random,mm,False
3374,2012-10-24 00:00:00,S04,n,n,0.304486036301,0,1,1,213,3,1,pattern,"['x', 'm', 'n', 'z']",xmnzx,mn,True,HF-pattern,mx,False
3375,2012-10-24 00:00:00,S04,n,n,0.0629580020905,0,1,1,214,3,1,random,"['x', 'm', 'n', 'z']",xmnzx,xn,False,LF-random,xn,True
3376,2012-10-24 00:00:00,S04,z,z,0.262963056564,0,1,1,215,3,1,pattern,"['x', 'm', 'n', 'z']",xmnzx,nz,True,HF-pattern,nn,False
3377,2012-10-24 00:00:00,S04,z,z,0.262439012527,0,1,1,216,3,1,random,"['x', 'm', 'n', 'z']",xmnzx,nz,True,HF-random,nz,True
3378,2012-10-24 00:00:00,S04,x,x,0.375110864639,0,1,1,217,3,1,pattern,"['x', 'm', 'n', 'z']",xmnzx,zx,True,HF-pattern,zz,False
3379,2012-10-24 00:00:00,S04,m,m,0.30569601059,0,1,1,218,3,1,random,"['x', 'm', 'n', 'z']",xmnzx,zm,False,LF-random,zx,False
3380,2012-10-24 00:00:00,S04,m,m,0.192277908325,0,1,1,219,3,1,pattern,"['x', 'm', 'n', 'z']",xmnzx,xm,True,HF-pattern,xm,True
3381,2012-10-24 00:00:00,S04,x,x,0.33889102935800003,0,1,1,220,3,1,random,"['x', 'm', 'n', 'z']",xmnzx,mx,False,LF-random,mm,False
3382,2012-10-24 00:00:00,S04,n,n,0.255589962006,0,1,1,221,3,1,pattern,"['x', 'm', 'n', 'z']",xmnzx,mn,True,HF-pattern,mx,False
3383,2012-10-24 00:00:00,S04,n,m,0.2556681633,0,1,0,222,3,1,random,"['x', 'm', 'n', 'z']",xmnzx,xn,False,LF-random,xn,True
3385,2012-10-24 00:00:00,S04,z,z,0.34099292755099997,0,1,1,223,3,1,pattern,"['x', 'm', 'n', 'z']",xmnzx,nz,True,HF-pattern,nn,False
3386,2012-10-24 00:00:00,S04,z,z,0.17759299278299998,0,1,1,224,3,1,random,"['x', 'm', 'n', 'z']",xmnzx,nz,True,HF-random,nz,True
3387,2012-10-24 00:00:00,S04,x,x,0.30845189094500003,0,1,1,225,3,1,pattern,"['x', 'm', 'n', 'z']",xmnzx,zx,True,HF-pattern,zz,False
3388,2012-10-24 00:00:00,S04,m,m,0.290960073471,0,1,1,226,3,1,random,"['x', 'm', 'n', 'z']",xmnzx,zm,False,LF-random,zx,False
3389,2012-10-24 00:00:00,S04,m,m,0.0814671516418,0,1,1,227,3,1,pattern,"['x', 'm', 'n', 'z']",xmnzx,xm,True,HF-pattern,xm,True
3390,2012-10-24 00:00:00,S04,x,x,0.37590694427500004,0,1,1,228,3,1,random,"['x', 'm', 'n', 'z']",xmnzx,mx,False,LF-random,mm,False
3391,2012-10-24 00:00:00,S04,n,n,0.291441917419,0,1,1,229,3,1,pattern,"['x', 'm', 'n', 'z']",xmnzx,mn,True,HF-pattern,mx,False
3392,2012-10-24 00:00:00,S04,n,n,0.209707021713,0,1,1,230,3,1,random,"['x', 'm', 'n', 'z']",xmnzx,xn,False,LF-random,xn,True
3393,2012-10-24 00:00:00,S04,z,z,0.356204032898,0,1,1,231,3,1,pattern,"['x', 'm', 'n', 'z']",xmnzx,nz,True,HF-pattern,nn,False
3394,2012-10-24 00:00:00,S04,z,z,0.303542852402,0,1,1,232,3,1,random,"['x', 'm', 'n', 'z']",xmnzx,nz,True,HF-random,nz,True
3395,2012-10-24 00:00:00,S04,x,x,0.36612200736999995,0,1,1,233,3,1,pattern,"['x', 'm', 'n', 'z']",xmnzx,zx,True,HF-pattern,zz,False
3396,2012-10-24 00:00:00,S04,m,m,0.376854896545,0,1,1,234,3,1,random,"['x', 'm', 'n', 'z']",xmnzx,zm,False,LF-random,zx,False
3397,2012-10-24 00:00:00,S04,m,m,0.020725965499900002,0,1,1,235,3,1,pattern,"['x', 'm', 'n', 'z']",xmnzx,xm,True,HF-pattern,xm,True
3398,2012-10-24 00:00:00,S04,x,x,0.36596107482900003,0,1,1,236,3,1,random,"['x', 'm', 'n', 'z']",xmnzx,mx,False,LF-random,mm,False
3399,2012-10-24 00:00:00,S04,n,m,0.329045057297,0,1,0,237,3,1,pattern,"['x', 'm', 'n', 'z']",xmnzx,mn,True,HF-pattern,mx,False
3401,2012-10-24 00:00:00,S04,n,n,0.332237005234,0,1,1,238,3,1,random,"['x', 'm', 'n', 'z']",xmnzx,xn,False,LF-random,xn,True
3402,2012-10-24 00:00:00,S04,z,z,0.40925121307400003,0,1,1,239,3,1,pattern,"['x', 'm', 'n', 'z']",xmnzx,nz,True,HF-pattern,nn,False
3403,2012-10-24 00:00:00,S04,z,z,0.227189064026,0,1,1,240,3,1,random,"['x', 'm', 'n', 'z']",xmnzx,nz,True,HF-random,nz,True
3404,2012-10-24 00:00:00,S04,x,x,0.28516292571999996,0,1,1,241,4,1,pattern,"['x', 'm', 'n', 'z']",xmnzx,zx,True,HF-pattern,zz,False
3405,2012-10-24 00:00:00,S04,m,m,0.34790611267099997,0,1,1,242,4,1,random,"['x', 'm', 'n', 'z']",xmnzx,zm,False,LF-random,zx,False
3406,2012-10-24 00:00:00,S04,m,m,0.0395078659058,0,1,1,243,4,1,pattern,"['x', 'm', 'n', 'z']",xmnzx,xm,True,HF-pattern,xm,True
3407,2012-10-24 00:00:00,S04,x,x,0.240308046341,0,1,1,244,4,1,random,"['x', 'm', 'n', 'z']",xmnzx,mx,False,LF-random,mm,False
3408,2012-10-24 00:00:00,S04,n,m,0.289062976837,0,1,0,245,4,1,pattern,"['x', 'm', 'n', 'z']",xmnzx,mn,True,HF-pattern,mx,False
3410,2012-10-24 00:00:00,S04,n,n,0.306087017059,0,1,1,246,4,1,random,"['x', 'm', 'n', 'z']",xmnzx,xn,False,LF-random,xn,True
3411,2012-10-24 00:00:00,S04,z,z,0.383135080338,0,1,1,247,4,1,pattern,"['x', 'm', 'n', 'z']",xmnzx,nz,True,HF-pattern,nn,False
3412,2012-10-24 00:00:00,S04,z,z,0.346323013306,0,1,1,248,4,1,random,"['x', 'm', 'n', 'z']",xmnzx,nz,True,HF-random,nz,True
3413,2012-10-24 00:00:00,S04,x,x,0.26245188713100004,0,1,1,249,4,1,pattern,"['x', 'm', 'n', 'z']",xmnzx,zx,True,HF-pattern,zz,False
3414,2012-10-24 00:00:00,S04,m,x,0.11893796920800001,0,1,0,250,4,1,random,"['x', 'm', 'n', 'z']",xmnzx,zm,False,LF-random,zx,False
3416,2012-10-24 00:00:00,S04,m,m,0.163740873337,0,1,1,251,4,1,pattern,"['x', 'm', 'n', 'z']",xmnzx,xm,True,HF-pattern,xm,True
3417,2012-10-24 00:00:00,S04,x,m,0.166745901108,0,1,0,252,4,1,random,"['x', 'm', 'n', 'z']",xmnzx,mx,False,LF-random,mm,False
3419,2012-10-24 00:00:00,S04,n,n,0.29169797897300004,0,1,1,253,4,1,pattern,"['x', 'm', 'n', 'z']",xmnzx,mn,True,HF-pattern,mx,False
3420,2012-10-24 00:00:00,S04,n,n,0.0658919811249,0,1,1,254,4,1,random,"['x', 'm', 'n', 'z']",xmnzx,xn,False,LF-random,xn,True
3421,2012-10-24 00:00:00,S04,z,z,0.297616004944,0,1,1,255,4,1,pattern,"['x', 'm', 'n', 'z']",xmnzx,nz,True,HF-pattern,nn,False
3422,2012-10-24 00:00:00,S04,z,z,0.26362490654,0,1,1,256,4,1,random,"['x', 'm', 'n', 'z']",xmnzx,nz,True,HF-random,nz,True
3423,2012-10-24 00:00:00,S04,x,x,0.310708999634,0,1,1,257,4,1,pattern,"['x', 'm', 'n', 'z']",xmnzx,zx,True,HF-pattern,zz,False
3424,2012-10-24 00:00:00,S04,m,n,0.228857040405,0,1,0,258,4,1,random,"['x', 'm', 'n', 'z']",xmnzx,zm,False,LF-random,zx,False
3426,2012-10-24 00:00:00,S04,m,m,0.044821023941,0,1,1,259,4,1,pattern,"['x', 'm', 'n', 'z']",xmnzx,xm,True,HF-pattern,xm,True
3427,2012-10-24 00:00:00,S04,x,x,0.373564004898,0,1,1,260,4,1,random,"['x', 'm', 'n', 'z']",xmnzx,mx,False,LF-random,mm,False
3428,2012-10-24 00:00:00,S04,n,n,0.336527824402,0,1,1,261,4,1,pattern,"['x', 'm', 'n', 'z']",xmnzx,mn,True,HF-pattern,mx,False
3429,2012-10-24 00:00:00,S04,n,n,0.285611867905,0,1,1,262,4,1,random,"['x', 'm', 'n', 'z']",xmnzx,xn,False,LF-random,xn,True
3430,2012-10-24 00:00:00,S04,z,z,0.332016944885,0,1,1,263,4,1,pattern,"['x', 'm', 'n', 'z']",xmnzx,nz,True,HF-pattern,nn,False
3431,2012-10-24 00:00:00,S04,z,z,0.376782178879,0,1,1,264,4,1,random,"['x', 'm', 'n', 'z']",xmnzx,nz,True,HF-random,nz,True
3432,2012-10-24 00:00:00,S04,x,x,0.307843923569,0,1,1,265,4,1,pattern,"['x', 'm', 'n', 'z']",xmnzx,zx,True,HF-pattern,zz,False
3433,2012-10-24 00:00:00,S04,m,m,0.306095838547,0,1,1,266,4,1,random,"['x', 'm', 'n', 'z']",xmnzx,zm,False,LF-random,zx,False
3434,2012-10-24 00:00:00,S04,m,m,0.0321099758148,0,1,1,267,4,1,pattern,"['x', 'm', 'n', 'z']",xmnzx,xm,True,HF-pattern,xm,True
3435,2012-10-24 00:00:00,S04,x,x,0.392210960388,0,1,1,268,4,1,random,"['x', 'm', 'n', 'z']",xmnzx,mx,False,LF-random,mm,False
3436,2012-10-24 00:00:00,S04,n,n,0.355396032333,0,1,1,269,4,1,pattern,"['x', 'm', 'n', 'z']",xmnzx,mn,True,HF-pattern,mx,False
3437,2012-10-24 00:00:00,S04,n,n,0.334988117218,0,1,1,270,4,1,random,"['x', 'm', 'n', 'z']",xmnzx,xn,False,LF-random,xn,True
3438,2012-10-24 00:00:00,S04,z,z,0.332101106644,0,1,1,271,4,1,pattern,"['x', 'm', 'n', 'z']",xmnzx,nz,True,HF-pattern,nn,False
3439,2012-10-24 00:00:00,S04,z,z,0.264355897903,0,1,1,272,4,1,random,"['x', 'm', 'n', 'z']",xmnzx,nz,True,HF-random,nz,True
3440,2012-10-24 00:00:00,S04,x,x,0.248155832291,0,1,1,273,4,1,pattern,"['x', 'm', 'n', 'z']",xmnzx,zx,True,HF-pattern,zz,False
3441,2012-10-24 00:00:00,S04,m,m,0.359847068787,0,1,1,274,4,1,random,"['x', 'm', 'n', 'z']",xmnzx,zm,False,LF-random,zx,False
3442,2012-10-24 00:00:00,S04,m,m,0.083930015564,0,1,1,275,4,1,pattern,"['x', 'm', 'n', 'z']",xmnzx,xm,True,HF-pattern,xm,True
3443,2012-10-24 00:00:00,S04,x,x,0.346635103226,0,1,1,276,4,1,random,"['x', 'm', 'n', 'z']",xmnzx,mx,False,LF-random,mm,False
3444,2012-10-24 00:00:00,S04,n,n,0.406121015549,0,1,1,277,4,1,pattern,"['x', 'm', 'n', 'z']",xmnzx,mn,True,HF-pattern,mx,False
3445,2012-10-24 00:00:00,S04,n,n,0.416581869125,0,1,1,278,4,1,random,"['x', 'm', 'n', 'z']",xmnzx,xn,False,LF-random,xn,True
3446,2012-10-24 00:00:00,S04,z,z,0.329461097717,0,1,1,279,4,1,pattern,"['x', 'm', 'n', 'z']",xmnzx,nz,True,HF-pattern,nn,False
3447,2012-10-24 00:00:00,S04,z,z,0.358625173569,0,1,1,280,4,1,random,"['x', 'm', 'n', 'z']",xmnzx,nz,True,HF-random,nz,True
3448,2012-10-24 00:00:00,S04,x,x,0.354199171066,0,1,1,281,4,1,pattern,"['x', 'm', 'n', 'z']",xmnzx,zx,True,HF-pattern,zz,False
3449,2012-10-24 00:00:00,S04,m,m,0.302520990372,0,1,1,282,4,1,random,"['x', 'm', 'n', 'z']",xmnzx,zm,False,LF-random,zx,False
3450,2012-10-24 00:00:00,S04,m,m,0.0444710254669,0,1,1,283,4,1,pattern,"['x', 'm', 'n', 'z']",xmnzx,xm,True,HF-pattern,xm,True
3451,2012-10-24 00:00:00,S04,x,x,0.35713505744900004,0,1,1,284,4,1,random,"['x', 'm', 'n', 'z']",xmnzx,mx,False,LF-random,mm,False
3452,2012-10-24 00:00:00,S04,n,n,0.432914018631,0,1,1,285,4,1,pattern,"['x', 'm', 'n', 'z']",xmnzx,mn,True,HF-pattern,mx,False
3453,2012-10-24 00:00:00,S04,n,n,0.361953020096,0,1,1,286,4,1,random,"['x', 'm', 'n', 'z']",xmnzx,xn,False,LF-random,xn,True
3454,2012-10-24 00:00:00,S04,z,z,0.405357837677,0,1,1,287,4,1,pattern,"['x', 'm', 'n', 'z']",xmnzx,nz,True,HF-pattern,nn,False
3455,2012-10-24 00:00:00,S04,z,z,0.351797103882,0,1,1,288,4,1,random,"['x', 'm', 'n', 'z']",xmnzx,nz,True,HF-random,nz,True
3456,2012-10-24 00:00:00,S04,x,x,0.251750946045,0,1,1,289,4,1,pattern,"['x', 'm', 'n', 'z']",xmnzx,zx,True,HF-pattern,zz,False
3457,2012-10-24 00:00:00,S04,m,x,0.12379789352399999,0,1,0,290,4,1,random,"['x', 'm', 'n', 'z']",xmnzx,zm,False,LF-random,zx,False
3459,2012-10-24 00:00:00,S04,m,m,0.135699033737,0,1,1,291,4,1,pattern,"['x', 'm', 'n', 'z']",xmnzx,xm,True,HF-pattern,xm,True
3460,2012-10-24 00:00:00,S04,x,x,0.34788703918499997,0,1,1,292,4,1,random,"['x', 'm', 'n', 'z']",xmnzx,mx,False,LF-random,mm,False
3461,2012-10-24 00:00:00,S04,n,n,0.312308073044,0,1,1,293,4,1,pattern,"['x', 'm', 'n', 'z']",xmnzx,mn,True,HF-pattern,mx,False
3462,2012-10-24 00:00:00,S04,n,n,0.47021317482,0,1,1,294,4,1,random,"['x', 'm', 'n', 'z']",xmnzx,xn,False,LF-random,xn,True
3463,2012-10-24 00:00:00,S04,z,z,0.317717075348,0,1,1,295,4,1,pattern,"['x', 'm', 'n', 'z']",xmnzx,nz,True,HF-pattern,nn,False
3464,2012-10-24 00:00:00,S04,z,z,0.250557899475,0,1,1,296,4,1,random,"['x', 'm', 'n', 'z']",xmnzx,nz,True,HF-random,nz,True
3465,2012-10-24 00:00:00,S04,x,x,0.31500697135899997,0,1,1,297,4,1,pattern,"['x', 'm', 'n', 'z']",xmnzx,zx,True,HF-pattern,zz,False
3466,2012-10-24 00:00:00,S04,m,m,0.21642112731899998,0,1,1,298,4,1,random,"['x', 'm', 'n', 'z']",xmnzx,zm,False,LF-random,zx,False
3467,2012-10-24 00:00:00,S04,m,m,0.057667016983,0,1,1,299,4,1,pattern,"['x', 'm', 'n', 'z']",xmnzx,xm,True,HF-pattern,xm,True
3468,2012-10-24 00:00:00,S04,x,x,0.338016986847,0,1,1,300,4,1,random,"['x', 'm', 'n', 'z']",xmnzx,mx,False,LF-random,mm,False
3469,2012-10-24 00:00:00,S04,n,n,0.41382813453699996,0,1,1,301,4,1,pattern,"['x', 'm', 'n', 'z']",xmnzx,mn,True,HF-pattern,mx,False
3470,2012-10-24 00:00:00,S04,n,n,0.0716190338135,0,1,1,302,4,1,random,"['x', 'm', 'n', 'z']",xmnzx,xn,False,LF-random,xn,True
3471,2012-10-24 00:00:00,S04,z,z,0.334846973419,0,1,1,303,4,1,pattern,"['x', 'm', 'n', 'z']",xmnzx,nz,True,HF-pattern,nn,False
3472,2012-10-24 00:00:00,S04,z,z,0.299597978592,0,1,1,304,4,1,random,"['x', 'm', 'n', 'z']",xmnzx,nz,True,HF-random,nz,True
3473,2012-10-24 00:00:00,S04,x,x,0.32955098152199996,0,1,1,305,4,1,pattern,"['x', 'm', 'n', 'z']",xmnzx,zx,True,HF-pattern,zz,False
3474,2012-10-24 00:00:00,S04,m,m,0.3428170681,0,1,1,306,4,1,random,"['x', 'm', 'n', 'z']",xmnzx,zm,False,LF-random,zx,False
3475,2012-10-24 00:00:00,S04,m,m,0.035537958145099996,0,1,1,307,4,1,pattern,"['x', 'm', 'n', 'z']",xmnzx,xm,True,HF-pattern,xm,True
3476,2012-10-24 00:00:00,S04,x,x,0.284086942673,0,1,1,308,4,1,random,"['x', 'm', 'n', 'z']",xmnzx,mx,False,LF-random,mm,False
3477,2012-10-24 00:00:00,S04,n,n,0.6189908981319999,0,1,1,309,4,1,pattern,"['x', 'm', 'n', 'z']",xmnzx,mn,True,HF-pattern,mx,False
3478,2012-10-24 00:00:00,S04,n,n,0.411675930023,0,1,1,310,4,1,random,"['x', 'm', 'n', 'z']",xmnzx,xn,False,LF-random,xn,True
3479,2012-10-24 00:00:00,S04,z,z,0.34213399887100004,0,1,1,311,4,1,pattern,"['x', 'm', 'n', 'z']",xmnzx,nz,True,HF-pattern,nn,False
3480,2012-10-24 00:00:00,S04,z,z,0.114408969879,0,1,1,312,4,1,random,"['x', 'm', 'n', 'z']",xmnzx,nz,True,HF-random,nz,True
3481,2012-10-24 00:00:00,S04,x,x,0.32810997963000005,0,1,1,313,4,1,pattern,"['x', 'm', 'n', 'z']",xmnzx,zx,True,HF-pattern,zz,False
3482,2012-10-24 00:00:00,S04,m,x,0.16549205779999998,0,1,0,314,4,1,random,"['x', 'm', 'n', 'z']",xmnzx,zm,False,LF-random,zx,False
3484,2012-10-24 00:00:00,S04,m,m,0.0821099281311,0,1,1,315,4,1,pattern,"['x', 'm', 'n', 'z']",xmnzx,xm,True,HF-pattern,xm,True
3485,2012-10-24 00:00:00,S04,x,x,0.376728057861,0,1,1,316,4,1,random,"['x', 'm', 'n', 'z']",xmnzx,mx,False,LF-random,mm,False
3486,2012-10-24 00:00:00,S04,n,n,0.17966103553800003,0,1,1,317,4,1,pattern,"['x', 'm', 'n', 'z']",xmnzx,mn,True,HF-pattern,mx,False
3487,2012-10-24 00:00:00,S04,n,n,0.0547518730164,0,1,1,318,4,1,random,"['x', 'm', 'n', 'z']",xmnzx,xn,False,LF-random,xn,True
3488,2012-10-24 00:00:00,S04,z,z,0.238651990891,0,1,1,319,4,1,pattern,"['x', 'm', 'n', 'z']",xmnzx,nz,True,HF-pattern,nn,False
3489,2012-10-24 00:00:00,S04,z,z,0.223020076752,0,1,1,320,4,1,random,"['x', 'm', 'n', 'z']",xmnzx,nz,True,HF-random,nz,True
3490,2012-10-24 00:00:00,S04,x,x,0.387344121933,0,1,1,321,5,1,pattern,"['x', 'm', 'n', 'z']",xmnzx,zx,True,HF-pattern,zz,False
3491,2012-10-24 00:00:00,S04,m,m,0.350728988647,0,1,1,322,5,1,random,"['x', 'm', 'n', 'z']",xmnzx,zm,False,LF-random,zx,False
3492,2012-10-24 00:00:00,S04,m,m,0.074343919754,0,1,1,323,5,1,pattern,"['x', 'm', 'n', 'z']",xmnzx,xm,True,HF-pattern,xm,True
3493,2012-10-24 00:00:00,S04,x,x,0.33786296844499997,0,1,1,324,5,1,random,"['x', 'm', 'n', 'z']",xmnzx,mx,False,LF-random,mm,False
3494,2012-10-24 00:00:00,S04,n,n,0.382251024246,0,1,1,325,5,1,pattern,"['x', 'm', 'n', 'z']",xmnzx,mn,True,HF-pattern,mx,False
3495,2012-10-24 00:00:00,S04,n,n,0.057177066803,0,1,1,326,5,1,random,"['x', 'm', 'n', 'z']",xmnzx,xn,False,LF-random,xn,True
3496,2012-10-24 00:00:00,S04,z,z,0.337207078934,0,1,1,327,5,1,pattern,"['x', 'm', 'n', 'z']",xmnzx,nz,True,HF-pattern,nn,False
3497,2012-10-24 00:00:00,S04,z,z,0.269330978394,0,1,1,328,5,1,random,"['x', 'm', 'n', 'z']",xmnzx,nz,True,HF-random,nz,True
3498,2012-10-24 00:00:00,S04,x,x,0.301122903824,0,1,1,329,5,1,pattern,"['x', 'm', 'n', 'z']",xmnzx,zx,True,HF-pattern,zz,False
3499,2012-10-24 00:00:00,S04,m,x,0.04309892654419999,0,1,0,330,5,1,random,"['x', 'm', 'n', 'z']",xmnzx,zm,False,LF-random,zx,False
3501,2012-10-24 00:00:00,S04,m,m,0.13577008247400002,0,1,1,331,5,1,pattern,"['x', 'm', 'n', 'z']",xmnzx,xm,True,HF-pattern,xm,True
3502,2012-10-24 00:00:00,S04,x,x,0.300534009933,0,1,1,332,5,1,random,"['x', 'm', 'n', 'z']",xmnzx,mx,False,LF-random,mm,False
3503,2012-10-24 00:00:00,S04,n,n,0.40988707542400005,0,1,1,333,5,1,pattern,"['x', 'm', 'n', 'z']",xmnzx,mn,True,HF-pattern,mx,False
3504,2012-10-24 00:00:00,S04,n,n,0.0523359775543,0,1,1,334,5,1,random,"['x', 'm', 'n', 'z']",xmnzx,xn,False,LF-random,xn,True
3505,2012-10-24 00:00:00,S04,z,z,0.28432917594900003,0,1,1,335,5,1,pattern,"['x', 'm', 'n', 'z']",xmnzx,nz,True,HF-pattern,nn,False
3506,2012-10-24 00:00:00,S04,z,z,0.21900701522799998,0,1,1,336,5,1,random,"['x', 'm', 'n', 'z']",xmnzx,nz,True,HF-random,nz,True
3507,2012-10-24 00:00:00,S04,x,x,0.364373207092,0,1,1,337,5,1,pattern,"['x', 'm', 'n', 'z']",xmnzx,zx,True,HF-pattern,zz,False
3508,2012-10-24 00:00:00,S04,m,x,0.05549907684330001,0,1,0,338,5,1,random,"['x', 'm', 'n', 'z']",xmnzx,zm,False,LF-random,zx,False
3510,2012-10-24 00:00:00,S04,m,m,0.0203049182892,0,1,1,339,5,1,pattern,"['x', 'm', 'n', 'z']",xmnzx,xm,True,HF-pattern,xm,True
3511,2012-10-24 00:00:00,S04,x,x,0.397350072861,0,1,1,340,5,1,random,"['x', 'm', 'n', 'z']",xmnzx,mx,False,LF-random,mm,False
3512,2012-10-24 00:00:00,S04,n,n,0.311706066132,0,1,1,341,5,1,pattern,"['x', 'm', 'n', 'z']",xmnzx,mn,True,HF-pattern,mx,False
3513,2012-10-24 00:00:00,S04,n,n,0.053663969039900006,0,1,1,342,5,1,random,"['x', 'm', 'n', 'z']",xmnzx,xn,False,LF-random,xn,True
3514,2012-10-24 00:00:00,S04,z,z,0.23713707923900001,0,1,1,343,5,1,pattern,"['x', 'm', 'n', 'z']",xmnzx,nz,True,HF-pattern,nn,False
3515,2012-10-24 00:00:00,S04,z,z,0.35031199455300005,0,1,1,344,5,1,random,"['x', 'm', 'n', 'z']",xmnzx,nz,True,HF-random,nz,True
3516,2012-10-24 00:00:00,S04,x,x,0.314007997513,0,1,1,345,5,1,pattern,"['x', 'm', 'n', 'z']",xmnzx,zx,True,HF-pattern,zz,False
3517,2012-10-24 00:00:00,S04,m,x,0.0555689334869,0,1,0,346,5,1,random,"['x', 'm', 'n', 'z']",xmnzx,zm,False,LF-random,zx,False
3519,2012-10-24 00:00:00,S04,m,m,0.0689079761505,0,1,1,347,5,1,pattern,"['x', 'm', 'n', 'z']",xmnzx,xm,True,HF-pattern,xm,True
3520,2012-10-24 00:00:00,S04,x,z,0.251864910126,0,1,0,348,5,1,random,"['x', 'm', 'n', 'z']",xmnzx,mx,False,LF-random,mm,False
3522,2012-10-24 00:00:00,S04,n,n,0.30482006073,0,1,1,349,5,1,pattern,"['x', 'm', 'n', 'z']",xmnzx,mn,True,HF-pattern,mx,False
3523,2012-10-24 00:00:00,S04,n,n,0.0307328701019,0,1,1,350,5,1,random,"['x', 'm', 'n', 'z']",xmnzx,xn,False,LF-random,xn,True
3524,2012-10-24 00:00:00,S04,z,z,0.151506900787,0,1,1,351,5,1,pattern,"['x', 'm', 'n', 'z']",xmnzx,nz,True,HF-pattern,nn,False
3525,2012-10-24 00:00:00,S04,z,z,0.17153310775800001,0,1,1,352,5,1,random,"['x', 'm', 'n', 'z']",xmnzx,nz,True,HF-random,nz,True
3526,2012-10-24 00:00:00,S04,x,x,0.446364879608,0,1,1,353,5,1,pattern,"['x', 'm', 'n', 'z']",xmnzx,zx,True,HF-pattern,zz,False
3527,2012-10-24 00:00:00,S04,m,x,0.0708811283112,0,1,0,354,5,1,random,"['x', 'm', 'n', 'z']",xmnzx,zm,False,LF-random,zx,False
3529,2012-10-24 00:00:00,S04,m,m,0.06588196754459999,0,1,1,355,5,1,pattern,"['x', 'm', 'n', 'z']",xmnzx,xm,True,HF-pattern,xm,True
3530,2012-10-24 00:00:00,S04,x,x,0.28160715103100004,0,1,1,356,5,1,random,"['x', 'm', 'n', 'z']",xmnzx,mx,False,LF-random,mm,False
3531,2012-10-24 00:00:00,S04,n,x,0.0881478786469,0,1,0,357,5,1,pattern,"['x', 'm', 'n', 'z']",xmnzx,mn,True,HF-pattern,mx,False
3533,2012-10-24 00:00:00,S04,n,n,0.083429813385,0,1,1,358,5,1,random,"['x', 'm', 'n', 'z']",xmnzx,xn,False,LF-random,xn,True
3534,2012-10-24 00:00:00,S04,z,z,0.330089092255,0,1,1,359,5,1,pattern,"['x', 'm', 'n', 'z']",xmnzx,nz,True,HF-pattern,nn,False
3535,2012-10-24 00:00:00,S04,z,z,0.24633479118299997,0,1,1,360,5,1,random,"['x', 'm', 'n', 'z']",xmnzx,nz,True,HF-random,nz,True
3536,2012-10-24 00:00:00,S04,x,x,0.29464507103,0,1,1,361,5,1,pattern,"['x', 'm', 'n', 'z']",xmnzx,zx,True,HF-pattern,zz,False
3537,2012-10-24 00:00:00,S04,m,x,0.0537259578705,0,1,0,362,5,1,random,"['x', 'm', 'n', 'z']",xmnzx,zm,False,LF-random,zx,False
3539,2012-10-24 00:00:00,S04,m,m,0.0493998527527,0,1,1,363,5,1,pattern,"['x', 'm', 'n', 'z']",xmnzx,xm,True,HF-pattern,xm,True
3540,2012-10-24 00:00:00,S04,x,z,0.281404972076,0,1,0,364,5,1,random,"['x', 'm', 'n', 'z']",xmnzx,mx,False,LF-random,mm,False
3542,2012-10-24 00:00:00,S04,n,x,0.08105802536010001,0,1,0,365,5,1,pattern,"['x', 'm', 'n', 'z']",xmnzx,mn,True,HF-pattern,mx,False
3544,2012-10-24 00:00:00,S04,n,n,0.038707017898599996,0,1,1,366,5,1,random,"['x', 'm', 'n', 'z']",xmnzx,xn,False,LF-random,xn,True
3545,2012-10-24 00:00:00,S04,z,z,0.286908864975,0,1,1,367,5,1,pattern,"['x', 'm', 'n', 'z']",xmnzx,nz,True,HF-pattern,nn,False
3546,2012-10-24 00:00:00,S04,z,z,0.062109947204599995,0,1,1,368,5,1,random,"['x', 'm', 'n', 'z']",xmnzx,nz,True,HF-random,nz,True
3547,2012-10-24 00:00:00,S04,x,x,0.277914047241,0,1,1,369,5,1,pattern,"['x', 'm', 'n', 'z']",xmnzx,zx,True,HF-pattern,zz,False
3548,2012-10-24 00:00:00,S04,m,x,0.053306818008399995,0,1,0,370,5,1,random,"['x', 'm', 'n', 'z']",xmnzx,zm,False,LF-random,zx,False
3550,2012-10-24 00:00:00,S04,m,m,0.035279035568199994,0,1,1,371,5,1,pattern,"['x', 'm', 'n', 'z']",xmnzx,xm,True,HF-pattern,xm,True
3551,2012-10-24 00:00:00,S04,x,x,0.379930973053,0,1,1,372,5,1,random,"['x', 'm', 'n', 'z']",xmnzx,mx,False,LF-random,mm,False
3552,2012-10-24 00:00:00,S04,n,x,0.03843998909,0,1,0,373,5,1,pattern,"['x', 'm', 'n', 'z']",xmnzx,mn,True,HF-pattern,mx,False
3554,2012-10-24 00:00:00,S04,n,n,0.0192918777466,0,1,1,374,5,1,random,"['x', 'm', 'n', 'z']",xmnzx,xn,False,LF-random,xn,True
3555,2012-10-24 00:00:00,S04,z,z,0.268482923508,0,1,1,375,5,1,pattern,"['x', 'm', 'n', 'z']",xmnzx,nz,True,HF-pattern,nn,False
3556,2012-10-24 00:00:00,S04,z,z,0.0599188804626,0,1,1,376,5,1,random,"['x', 'm', 'n', 'z']",xmnzx,nz,True,HF-random,nz,True
3557,2012-10-24 00:00:00,S04,x,x,0.227902173996,0,1,1,377,5,1,pattern,"['x', 'm', 'n', 'z']",xmnzx,zx,True,HF-pattern,zz,False
3558,2012-10-24 00:00:00,S04,m,x,0.0854499340057,0,1,0,378,5,1,random,"['x', 'm', 'n', 'z']",xmnzx,zm,False,LF-random,zx,False
3560,2012-10-24 00:00:00,S04,m,m,0.0178899765015,0,1,1,379,5,1,pattern,"['x', 'm', 'n', 'z']",xmnzx,xm,True,HF-pattern,xm,True
3561,2012-10-24 00:00:00,S04,x,x,0.41116690635700004,0,1,1,380,5,1,random,"['x', 'm', 'n', 'z']",xmnzx,mx,False,LF-random,mm,False
3562,2012-10-24 00:00:00,S04,n,n,0.292651891708,0,1,1,381,5,1,pattern,"['x', 'm', 'n', 'z']",xmnzx,mn,True,HF-pattern,mx,False
3563,2012-10-24 00:00:00,S04,n,n,0.0040500164032,0,1,1,382,5,1,random,"['x', 'm', 'n', 'z']",xmnzx,xn,False,LF-random,xn,True
3564,2012-10-24 00:00:00,S04,z,z,0.19033885002099998,0,1,1,383,5,1,pattern,"['x', 'm', 'n', 'z']",xmnzx,nz,True,HF-pattern,nn,False
3565,2012-10-24 00:00:00,S04,z,z,0.304406166077,0,1,1,384,5,1,random,"['x', 'm', 'n', 'z']",xmnzx,nz,True,HF-random,nz,True
3566,2012-10-24 00:00:00,S04,x,x,0.479052066803,0,1,1,385,5,1,pattern,"['x', 'm', 'n', 'z']",xmnzx,zx,True,HF-pattern,zz,False
3567,2012-10-24 00:00:00,S04,m,x,0.0542240142822,0,1,0,386,5,1,random,"['x', 'm', 'n', 'z']",xmnzx,zm,False,LF-random,zx,False
3569,2012-10-24 00:00:00,S04,m,m,0.0501911640167,0,1,1,387,5,1,pattern,"['x', 'm', 'n', 'z']",xmnzx,xm,True,HF-pattern,xm,True
3570,2012-10-24 00:00:00,S04,x,x,0.362193107605,0,1,1,388,5,1,random,"['x', 'm', 'n', 'z']",xmnzx,mx,False,LF-random,mm,False
3571,2012-10-24 00:00:00,S04,n,n,0.310020923615,0,1,1,389,5,1,pattern,"['x', 'm', 'n', 'z']",xmnzx,mn,True,HF-pattern,mx,False
3572,2012-10-24 00:00:00,S04,n,n,0.0198340415955,0,1,1,390,5,1,random,"['x', 'm', 'n', 'z']",xmnzx,xn,False,LF-random,xn,True
3573,2012-10-24 00:00:00,S04,z,z,0.269726991653,0,1,1,391,5,1,pattern,"['x', 'm', 'n', 'z']",xmnzx,nz,True,HF-pattern,nn,False
3574,2012-10-24 00:00:00,S04,z,z,0.204342126846,0,1,1,392,5,1,random,"['x', 'm', 'n', 'z']",xmnzx,nz,True,HF-random,nz,True
3575,2012-10-24 00:00:00,S04,x,x,0.286331176758,0,1,1,393,5,1,pattern,"['x', 'm', 'n', 'z']",xmnzx,zx,True,HF-pattern,zz,False
3576,2012-10-24 00:00:00,S04,m,x,0.0452508926392,0,1,0,394,5,1,random,"['x', 'm', 'n', 'z']",xmnzx,zm,False,LF-random,zx,False
3578,2012-10-24 00:00:00,S04,m,m,0.0417201519012,0,1,1,395,5,1,pattern,"['x', 'm', 'n', 'z']",xmnzx,xm,True,HF-pattern,xm,True
3579,2012-10-24 00:00:00,S04,x,x,0.514050006866,0,1,1,396,5,1,random,"['x', 'm', 'n', 'z']",xmnzx,mx,False,LF-random,mm,False
3580,2012-10-24 00:00:00,S04,n,n,0.279878139496,0,1,1,397,5,1,pattern,"['x', 'm', 'n', 'z']",xmnzx,mn,True,HF-pattern,mx,False
3581,2012-10-24 00:00:00,S04,n,n,0.6139070987699999,0,1,1,398,5,1,random,"['x', 'm', 'n', 'z']",xmnzx,xn,False,LF-random,xn,True
3582,2012-10-24 00:00:00,S04,z,z,0.391646146774,0,1,1,399,5,1,pattern,"['x', 'm', 'n', 'z']",xmnzx,nz,True,HF-pattern,nn,False
3583,2012-10-24 00:00:00,S04,z,z,0.36981201171899997,0,1,1,400,5,1,random,"['x', 'm', 'n', 'z']",xmnzx,nz,True,HF-random,nz,True
3584,2012-10-24 00:00:00,S04,x,x,0.351608037949,0,1,1,401,6,2,pattern,"['x', 'm', 'n', 'z']",xmnzx,zx,True,HF-pattern,zz,False
3585,2012-10-24 00:00:00,S04,m,m,0.37899518013000005,0,1,1,402,6,2,random,"['x', 'm', 'n', 'z']",xmnzx,zm,False,LF-random,zx,False
3586,2012-10-24 00:00:00,S04,m,m,0.03884100914,0,1,1,403,6,2,pattern,"['x', 'm', 'n', 'z']",xmnzx,xm,True,HF-pattern,xm,True
3587,2012-10-24 00:00:00,S04,x,x,0.39932894706699995,0,1,1,404,6,2,random,"['x', 'm', 'n', 'z']",xmnzx,mx,False,LF-random,mm,False
3588,2012-10-24 00:00:00,S04,n,n,0.345581054688,0,1,1,405,6,2,pattern,"['x', 'm', 'n', 'z']",xmnzx,mn,True,HF-pattern,mx,False
3589,2012-10-24 00:00:00,S04,n,n,0.0381138324738,0,1,1,406,6,2,random,"['x', 'm', 'n', 'z']",xmnzx,xn,False,LF-random,xn,True
3590,2012-10-24 00:00:00,S04,z,x,0.254334211349,0,1,0,407,6,2,pattern,"['x', 'm', 'n', 'z']",xmnzx,nz,True,HF-pattern,nn,False
3592,2012-10-24 00:00:00,S04,z,z,0.276196956635,0,1,1,408,6,2,random,"['x', 'm', 'n', 'z']",xmnzx,nz,True,HF-random,nz,True
3593,2012-10-24 00:00:00,S04,x,x,0.323079824448,0,1,1,409,6,2,pattern,"['x', 'm', 'n', 'z']",xmnzx,zx,True,HF-pattern,zz,False
3594,2012-10-24 00:00:00,S04,m,n,0.224817991257,0,1,0,410,6,2,random,"['x', 'm', 'n', 'z']",xmnzx,zm,False,LF-random,zx,False
3596,2012-10-24 00:00:00,S04,m,m,0.038954019546500004,0,1,1,411,6,2,pattern,"['x', 'm', 'n', 'z']",xmnzx,xm,True,HF-pattern,xm,True
3597,2012-10-24 00:00:00,S04,x,x,0.447527170181,0,1,1,412,6,2,random,"['x', 'm', 'n', 'z']",xmnzx,mx,False,LF-random,mm,False
3598,2012-10-24 00:00:00,S04,n,n,0.27902102470400003,0,1,1,413,6,2,pattern,"['x', 'm', 'n', 'z']",xmnzx,mn,True,HF-pattern,mx,False
3599,2012-10-24 00:00:00,S04,n,n,0.310646057129,0,1,1,414,6,2,random,"['x', 'm', 'n', 'z']",xmnzx,xn,False,LF-random,xn,True
3600,2012-10-24 00:00:00,S04,z,z,0.308570861816,0,1,1,415,6,2,pattern,"['x', 'm', 'n', 'z']",xmnzx,nz,True,HF-pattern,nn,False
3601,2012-10-24 00:00:00,S04,z,z,0.210589170456,0,1,1,416,6,2,random,"['x', 'm', 'n', 'z']",xmnzx,nz,True,HF-random,nz,True
3602,2012-10-24 00:00:00,S04,x,z,0.180753946304,0,1,0,417,6,2,pattern,"['x', 'm', 'n', 'z']",xmnzx,zx,True,HF-pattern,zz,False
3604,2012-10-24 00:00:00,S04,m,x,0.07895112037660001,0,1,0,418,6,2,random,"['x', 'm', 'n', 'z']",xmnzx,zm,False,LF-random,zx,False
3606,2012-10-24 00:00:00,S04,m,m,0.0280721187592,0,1,1,419,6,2,pattern,"['x', 'm', 'n', 'z']",xmnzx,xm,True,HF-pattern,xm,True
3607,2012-10-24 00:00:00,S04,x,x,0.362016916275,0,1,1,420,6,2,random,"['x', 'm', 'n', 'z']",xmnzx,mx,False,LF-random,mm,False
3608,2012-10-24 00:00:00,S04,n,n,0.310564994812,0,1,1,421,6,2,pattern,"['x', 'm', 'n', 'z']",xmnzx,mn,True,HF-pattern,mx,False
3609,2012-10-24 00:00:00,S04,n,n,0.292015075684,0,1,1,422,6,2,random,"['x', 'm', 'n', 'z']",xmnzx,xn,False,LF-random,xn,True
3610,2012-10-24 00:00:00,S04,z,z,0.29116606712299997,0,1,1,423,6,2,pattern,"['x', 'm', 'n', 'z']",xmnzx,nz,True,HF-pattern,nn,False
3611,2012-10-24 00:00:00,S04,z,z,0.226152181625,0,1,1,424,6,2,random,"['x', 'm', 'n', 'z']",xmnzx,nz,True,HF-random,nz,True
3612,2012-10-24 00:00:00,S04,x,x,0.259141206741,0,1,1,425,6,2,pattern,"['x', 'm', 'n', 'z']",xmnzx,zx,True,HF-pattern,zz,False
3613,2012-10-24 00:00:00,S04,m,m,0.307097911835,0,1,1,426,6,2,random,"['x', 'm', 'n', 'z']",xmnzx,zm,False,LF-random,zx,False
3614,2012-10-24 00:00:00,S04,m,m,0.033056974411,0,1,1,427,6,2,pattern,"['x', 'm', 'n', 'z']",xmnzx,xm,True,HF-pattern,xm,True
3615,2012-10-24 00:00:00,S04,x,x,0.409744977951,0,1,1,428,6,2,random,"['x', 'm', 'n', 'z']",xmnzx,mx,False,LF-random,mm,False
3616,2012-10-24 00:00:00,S04,n,n,0.48327183723399997,0,1,1,429,6,2,pattern,"['x', 'm', 'n', 'z']",xmnzx,mn,True,HF-pattern,mx,False
3617,2012-10-24 00:00:00,S04,n,n,0.0424518585205,0,1,1,430,6,2,random,"['x', 'm', 'n', 'z']",xmnzx,xn,False,LF-random,xn,True
3618,2012-10-24 00:00:00,S04,z,z,0.227124929428,0,1,1,431,6,2,pattern,"['x', 'm', 'n', 'z']",xmnzx,nz,True,HF-pattern,nn,False
3619,2012-10-24 00:00:00,S04,z,z,0.211985111237,0,1,1,432,6,2,random,"['x', 'm', 'n', 'z']",xmnzx,nz,True,HF-random,nz,True
3620,2012-10-24 00:00:00,S04,x,x,0.262418031693,0,1,1,433,6,2,pattern,"['x', 'm', 'n', 'z']",xmnzx,zx,True,HF-pattern,zz,False
3621,2012-10-24 00:00:00,S04,m,x,0.0867710113525,0,1,0,434,6,2,random,"['x', 'm', 'n', 'z']",xmnzx,zm,False,LF-random,zx,False
3623,2012-10-24 00:00:00,S04,m,m,0.0336780548096,0,1,1,435,6,2,pattern,"['x', 'm', 'n', 'z']",xmnzx,xm,True,HF-pattern,xm,True
3624,2012-10-24 00:00:00,S04,x,x,0.282356977463,0,1,1,436,6,2,random,"['x', 'm', 'n', 'z']",xmnzx,mx,False,LF-random,mm,False
3625,2012-10-24 00:00:00,S04,n,x,0.0570058822632,0,1,0,437,6,2,pattern,"['x', 'm', 'n', 'z']",xmnzx,mn,True,HF-pattern,mx,False
3627,2012-10-24 00:00:00,S04,n,n,0.017725944519,0,1,1,438,6,2,random,"['x', 'm', 'n', 'z']",xmnzx,xn,False,LF-random,xn,True
3628,2012-10-24 00:00:00,S04,z,z,0.283072948456,0,1,1,439,6,2,pattern,"['x', 'm', 'n', 'z']",xmnzx,nz,True,HF-pattern,nn,False
3629,2012-10-24 00:00:00,S04,z,z,0.24929189681999997,0,1,1,440,6,2,random,"['x', 'm', 'n', 'z']",xmnzx,nz,True,HF-random,nz,True
3630,2012-10-24 00:00:00,S04,x,x,0.29763507843000003,0,1,1,441,6,2,pattern,"['x', 'm', 'n', 'z']",xmnzx,zx,True,HF-pattern,zz,False
3631,2012-10-24 00:00:00,S04,m,x,0.10352706909199999,0,1,0,442,6,2,random,"['x', 'm', 'n', 'z']",xmnzx,zm,False,LF-random,zx,False
3633,2012-10-24 00:00:00,S04,m,m,0.0642871856689,0,1,1,443,6,2,pattern,"['x', 'm', 'n', 'z']",xmnzx,xm,True,HF-pattern,xm,True
3634,2012-10-24 00:00:00,S04,x,x,0.35963892936700004,0,1,1,444,6,2,random,"['x', 'm', 'n', 'z']",xmnzx,mx,False,LF-random,mm,False
3635,2012-10-24 00:00:00,S04,n,x,0.0678009986877,0,1,0,445,6,2,pattern,"['x', 'm', 'n', 'z']",xmnzx,mn,True,HF-pattern,mx,False
3637,2012-10-24 00:00:00,S04,n,n,0.047601938247699996,0,1,1,446,6,2,random,"['x', 'm', 'n', 'z']",xmnzx,xn,False,LF-random,xn,True
3638,2012-10-24 00:00:00,S04,z,z,0.40703701973000006,0,1,1,447,6,2,pattern,"['x', 'm', 'n', 'z']",xmnzx,nz,True,HF-pattern,nn,False
3639,2012-10-24 00:00:00,S04,z,z,0.20961999893199998,0,1,1,448,6,2,random,"['x', 'm', 'n', 'z']",xmnzx,nz,True,HF-random,nz,True
3640,2012-10-24 00:00:00,S04,x,x,0.307444095612,0,1,1,449,6,2,pattern,"['x', 'm', 'n', 'z']",xmnzx,zx,True,HF-pattern,zz,False
3641,2012-10-24 00:00:00,S04,m,x,0.0654759407043,0,1,0,450,6,2,random,"['x', 'm', 'n', 'z']",xmnzx,zm,False,LF-random,zx,False
3643,2012-10-24 00:00:00,S04,m,m,0.0137600898743,0,1,1,451,6,2,pattern,"['x', 'm', 'n', 'z']",xmnzx,xm,True,HF-pattern,xm,True
3644,2012-10-24 00:00:00,S04,x,z,0.406359910965,0,1,0,452,6,2,random,"['x', 'm', 'n', 'z']",xmnzx,mx,False,LF-random,mm,False
3646,2012-10-24 00:00:00,S04,n,x,0.08887505531310001,0,1,0,453,6,2,pattern,"['x', 'm', 'n', 'z']",xmnzx,mn,True,HF-pattern,mx,False
3648,2012-10-24 00:00:00,S04,n,n,0.015507936477700001,0,1,1,454,6,2,random,"['x', 'm', 'n', 'z']",xmnzx,xn,False,LF-random,xn,True
3649,2012-10-24 00:00:00,S04,z,z,0.312953948975,0,1,1,455,6,2,pattern,"['x', 'm', 'n', 'z']",xmnzx,nz,True,HF-pattern,nn,False
3650,2012-10-24 00:00:00,S04,z,z,0.0708818435669,0,1,1,456,6,2,random,"['x', 'm', 'n', 'z']",xmnzx,nz,True,HF-random,nz,True
3651,2012-10-24 00:00:00,S04,x,x,0.23776507377599998,0,1,1,457,6,2,pattern,"['x', 'm', 'n', 'z']",xmnzx,zx,True,HF-pattern,zz,False
3652,2012-10-24 00:00:00,S04,m,x,0.046771049499500006,0,1,0,458,6,2,random,"['x', 'm', 'n', 'z']",xmnzx,zm,False,LF-random,zx,False
3654,2012-10-24 00:00:00,S04,m,m,0.0233240127563,0,1,1,459,6,2,pattern,"['x', 'm', 'n', 'z']",xmnzx,xm,True,HF-pattern,xm,True
3655,2012-10-24 00:00:00,S04,x,x,0.352708101273,0,1,1,460,6,2,random,"['x', 'm', 'n', 'z']",xmnzx,mx,False,LF-random,mm,False
3656,2012-10-24 00:00:00,S04,n,x,0.0127339363098,0,1,0,461,6,2,pattern,"['x', 'm', 'n', 'z']",xmnzx,mn,True,HF-pattern,mx,False
3658,2012-10-24 00:00:00,S04,n,n,0.0080931186676,0,1,1,462,6,2,random,"['x', 'm', 'n', 'z']",xmnzx,xn,False,LF-random,xn,True
3659,2012-10-24 00:00:00,S04,z,z,0.322038173676,0,1,1,463,6,2,pattern,"['x', 'm', 'n', 'z']",xmnzx,nz,True,HF-pattern,nn,False
3660,2012-10-24 00:00:00,S04,z,z,0.0634200572968,0,1,1,464,6,2,random,"['x', 'm', 'n', 'z']",xmnzx,nz,True,HF-random,nz,True
3661,2012-10-24 00:00:00,S04,x,x,0.24625182151799999,0,1,1,465,6,2,pattern,"['x', 'm', 'n', 'z']",xmnzx,zx,True,HF-pattern,zz,False
3662,2012-10-24 00:00:00,S04,m,x,0.0546379089355,0,1,0,466,6,2,random,"['x', 'm', 'n', 'z']",xmnzx,zm,False,LF-random,zx,False
3664,2012-10-24 00:00:00,S04,m,m,0.0373899936676,0,1,1,467,6,2,pattern,"['x', 'm', 'n', 'z']",xmnzx,xm,True,HF-pattern,xm,True
3665,2012-10-24 00:00:00,S04,x,x,0.317646980286,0,1,1,468,6,2,random,"['x', 'm', 'n', 'z']",xmnzx,mx,False,LF-random,mm,False
3666,2012-10-24 00:00:00,S04,n,x,0.043328046798700004,0,1,0,469,6,2,pattern,"['x', 'm', 'n', 'z']",xmnzx,mn,True,HF-pattern,mx,False
3668,2012-10-24 00:00:00,S04,n,n,0.0572350025177,0,1,1,470,6,2,random,"['x', 'm', 'n', 'z']",xmnzx,xn,False,LF-random,xn,True
3669,2012-10-24 00:00:00,S04,z,z,0.273434877396,0,1,1,471,6,2,pattern,"['x', 'm', 'n', 'z']",xmnzx,nz,True,HF-pattern,nn,False
3670,2012-10-24 00:00:00,S04,z,z,0.0326020717621,0,1,1,472,6,2,random,"['x', 'm', 'n', 'z']",xmnzx,nz,True,HF-random,nz,True
3671,2012-10-24 00:00:00,S04,x,x,0.265181064606,0,1,1,473,6,2,pattern,"['x', 'm', 'n', 'z']",xmnzx,zx,True,HF-pattern,zz,False
3672,2012-10-24 00:00:00,S04,m,x,0.024578094482400004,0,1,0,474,6,2,random,"['x', 'm', 'n', 'z']",xmnzx,zm,False,LF-random,zx,False
3674,2012-10-24 00:00:00,S04,m,m,0.0492210388184,0,1,1,475,6,2,pattern,"['x', 'm', 'n', 'z']",xmnzx,xm,True,HF-pattern,xm,True
3675,2012-10-24 00:00:00,S04,x,x,0.24874711036699998,0,1,1,476,6,2,random,"['x', 'm', 'n', 'z']",xmnzx,mx,False,LF-random,mm,False
3676,2012-10-24 00:00:00,S04,n,x,0.07326388359069999,0,1,0,477,6,2,pattern,"['x', 'm', 'n', 'z']",xmnzx,mn,True,HF-pattern,mx,False
3680,2012-10-24 00:00:00,S04,n,n,0.0452010631561,0,1,1,478,6,2,random,"['x', 'm', 'n', 'z']",xmnzx,xn,False,LF-random,xn,True
3681,2012-10-24 00:00:00,S04,z,z,0.309861898422,0,1,1,479,6,2,pattern,"['x', 'm', 'n', 'z']",xmnzx,nz,True,HF-pattern,nn,False
3682,2012-10-24 00:00:00,S04,z,z,0.0677230358124,0,1,1,480,6,2,random,"['x', 'm', 'n', 'z']",xmnzx,nz,True,HF-random,nz,True
3683,2012-10-24 00:00:00,S04,x,x,0.616007089615,0,1,1,481,7,2,pattern,"['x', 'm', 'n', 'z']",xmnzx,zx,True,HF-pattern,zz,False
3684,2012-10-24 00:00:00,S04,m,m,0.34566903114299996,0,1,1,482,7,2,random,"['x', 'm', 'n', 'z']",xmnzx,zm,False,LF-random,zx,False
3685,2012-10-24 00:00:00,S04,m,m,0.0380730628967,0,1,1,483,7,2,pattern,"['x', 'm', 'n', 'z']",xmnzx,xm,True,HF-pattern,xm,True
3686,2012-10-24 00:00:00,S04,x,x,0.366326093674,0,1,1,484,7,2,random,"['x', 'm', 'n', 'z']",xmnzx,mx,False,LF-random,mm,False
3687,2012-10-24 00:00:00,S04,n,x,0.0421299934387,0,1,0,485,7,2,pattern,"['x', 'm', 'n', 'z']",xmnzx,mn,True,HF-pattern,mx,False
3689,2012-10-24 00:00:00,S04,n,n,0.0065450668334999995,0,1,1,486,7,2,random,"['x', 'm', 'n', 'z']",xmnzx,xn,False,LF-random,xn,True
3690,2012-10-24 00:00:00,S04,z,z,0.27219295501699997,0,1,1,487,7,2,pattern,"['x', 'm', 'n', 'z']",xmnzx,nz,True,HF-pattern,nn,False
3691,2012-10-24 00:00:00,S04,z,z,0.048015117645300004,0,1,1,488,7,2,random,"['x', 'm', 'n', 'z']",xmnzx,nz,True,HF-random,nz,True
3692,2012-10-24 00:00:00,S04,x,x,0.264127969742,0,1,1,489,7,2,pattern,"['x', 'm', 'n', 'z']",xmnzx,zx,True,HF-pattern,zz,False
3693,2012-10-24 00:00:00,S04,m,x,0.0392191410065,0,1,0,490,7,2,random,"['x', 'm', 'n', 'z']",xmnzx,zm,False,LF-random,zx,False
3695,2012-10-24 00:00:00,S04,m,m,0.0361151695251,0,1,1,491,7,2,pattern,"['x', 'm', 'n', 'z']",xmnzx,xm,True,HF-pattern,xm,True
3696,2012-10-24 00:00:00,S04,x,x,0.30064201355000003,0,1,1,492,7,2,random,"['x', 'm', 'n', 'z']",xmnzx,mx,False,LF-random,mm,False
3697,2012-10-24 00:00:00,S04,n,x,0.0266311168671,0,1,0,493,7,2,pattern,"['x', 'm', 'n', 'z']",xmnzx,mn,True,HF-pattern,mx,False
3699,2012-10-24 00:00:00,S04,n,n,0.00253200531006,0,1,1,494,7,2,random,"['x', 'm', 'n', 'z']",xmnzx,xn,False,LF-random,xn,True
3700,2012-10-24 00:00:00,S04,z,z,0.477077960968,0,1,1,495,7,2,pattern,"['x', 'm', 'n', 'z']",xmnzx,nz,True,HF-pattern,nn,False
3701,2012-10-24 00:00:00,S04,z,z,0.116837978363,0,1,1,496,7,2,random,"['x', 'm', 'n', 'z']",xmnzx,nz,True,HF-random,nz,True
3702,2012-10-24 00:00:00,S04,x,x,0.39367914199799997,0,1,1,497,7,2,pattern,"['x', 'm', 'n', 'z']",xmnzx,zx,True,HF-pattern,zz,False
3703,2012-10-24 00:00:00,S04,m,x,0.036854028701800004,0,1,0,498,7,2,random,"['x', 'm', 'n', 'z']",xmnzx,zm,False,LF-random,zx,False
3705,2012-10-24 00:00:00,S04,m,m,0.0328650474548,0,1,1,499,7,2,pattern,"['x', 'm', 'n', 'z']",xmnzx,xm,True,HF-pattern,xm,True
3706,2012-10-24 00:00:00,S04,x,x,0.329090833664,0,1,1,500,7,2,random,"['x', 'm', 'n', 'z']",xmnzx,mx,False,LF-random,mm,False
3707,2012-10-24 00:00:00,S04,n,m,0.295090913773,0,1,0,501,7,2,pattern,"['x', 'm', 'n', 'z']",xmnzx,mn,True,HF-pattern,mx,False
3709,2012-10-24 00:00:00,S04,n,n,0.327474117279,0,1,1,502,7,2,random,"['x', 'm', 'n', 'z']",xmnzx,xn,False,LF-random,xn,True
3710,2012-10-24 00:00:00,S04,z,z,0.37273907661399996,0,1,1,503,7,2,pattern,"['x', 'm', 'n', 'z']",xmnzx,nz,True,HF-pattern,nn,False
3711,2012-10-24 00:00:00,S04,z,z,0.192232847214,0,1,1,504,7,2,random,"['x', 'm', 'n', 'z']",xmnzx,nz,True,HF-random,nz,True
3712,2012-10-24 00:00:00,S04,x,x,0.46673202514600004,0,1,1,505,7,2,pattern,"['x', 'm', 'n', 'z']",xmnzx,zx,True,HF-pattern,zz,False
3713,2012-10-24 00:00:00,S04,m,x,0.09005117416380001,0,1,0,506,7,2,random,"['x', 'm', 'n', 'z']",xmnzx,zm,False,LF-random,zx,False
3715,2012-10-24 00:00:00,S04,m,m,0.0514991283417,0,1,1,507,7,2,pattern,"['x', 'm', 'n', 'z']",xmnzx,xm,True,HF-pattern,xm,True
3716,2012-10-24 00:00:00,S04,x,x,0.34690403938299996,0,1,1,508,7,2,random,"['x', 'm', 'n', 'z']",xmnzx,mx,False,LF-random,mm,False
3717,2012-10-24 00:00:00,S04,n,x,0.135494947433,0,1,0,509,7,2,pattern,"['x', 'm', 'n', 'z']",xmnzx,mn,True,HF-pattern,mx,False
3719,2012-10-24 00:00:00,S04,n,n,0.457249879837,0,1,1,510,7,2,random,"['x', 'm', 'n', 'z']",xmnzx,xn,False,LF-random,xn,True
3720,2012-10-24 00:00:00,S04,z,z,0.336985826492,0,1,1,511,7,2,pattern,"['x', 'm', 'n', 'z']",xmnzx,nz,True,HF-pattern,nn,False
3721,2012-10-24 00:00:00,S04,z,z,0.301883935928,0,1,1,512,7,2,random,"['x', 'm', 'n', 'z']",xmnzx,nz,True,HF-random,nz,True
3722,2012-10-24 00:00:00,S04,x,x,0.395593881607,0,1,1,513,7,2,pattern,"['x', 'm', 'n', 'z']",xmnzx,zx,True,HF-pattern,zz,False
3723,2012-10-24 00:00:00,S04,m,m,0.518568992615,0,1,1,514,7,2,random,"['x', 'm', 'n', 'z']",xmnzx,zm,False,LF-random,zx,False
3724,2012-10-24 00:00:00,S04,m,m,0.011890172958400001,0,1,1,515,7,2,pattern,"['x', 'm', 'n', 'z']",xmnzx,xm,True,HF-pattern,xm,True
3725,2012-10-24 00:00:00,S04,x,x,0.30942511558499997,0,1,1,516,7,2,random,"['x', 'm', 'n', 'z']",xmnzx,mx,False,LF-random,mm,False
3726,2012-10-24 00:00:00,S04,n,x,0.211865901947,0,1,0,517,7,2,pattern,"['x', 'm', 'n', 'z']",xmnzx,mn,True,HF-pattern,mx,False
3728,2012-10-24 00:00:00,S04,n,n,0.453824043274,0,1,1,518,7,2,random,"['x', 'm', 'n', 'z']",xmnzx,xn,False,LF-random,xn,True
3729,2012-10-24 00:00:00,S04,z,z,0.34940290451,0,1,1,519,7,2,pattern,"['x', 'm', 'n', 'z']",xmnzx,nz,True,HF-pattern,nn,False
3730,2012-10-24 00:00:00,S04,z,z,0.0738339424133,0,1,1,520,7,2,random,"['x', 'm', 'n', 'z']",xmnzx,nz,True,HF-random,nz,True
3731,2012-10-24 00:00:00,S04,x,x,0.35326719284100006,0,1,1,521,7,2,pattern,"['x', 'm', 'n', 'z']",xmnzx,zx,True,HF-pattern,zz,False
3732,2012-10-24 00:00:00,S04,m,x,0.07687902450560001,0,1,0,522,7,2,random,"['x', 'm', 'n', 'z']",xmnzx,zm,False,LF-random,zx,False
3734,2012-10-24 00:00:00,S04,m,m,0.0411357879639,0,1,1,523,7,2,pattern,"['x', 'm', 'n', 'z']",xmnzx,xm,True,HF-pattern,xm,True
3735,2012-10-24 00:00:00,S04,x,x,0.529392957687,0,1,1,524,7,2,random,"['x', 'm', 'n', 'z']",xmnzx,mx,False,LF-random,mm,False
3736,2012-10-24 00:00:00,S04,n,x,0.054476022720300006,0,1,0,525,7,2,pattern,"['x', 'm', 'n', 'z']",xmnzx,mn,True,HF-pattern,mx,False
3738,2012-10-24 00:00:00,S04,n,n,0.316854000092,0,1,1,526,7,2,random,"['x', 'm', 'n', 'z']",xmnzx,xn,False,LF-random,xn,True
3739,2012-10-24 00:00:00,S04,z,z,0.378373146057,0,1,1,527,7,2,pattern,"['x', 'm', 'n', 'z']",xmnzx,nz,True,HF-pattern,nn,False
3740,2012-10-24 00:00:00,S04,z,z,0.06942605972289999,0,1,1,528,7,2,random,"['x', 'm', 'n', 'z']",xmnzx,nz,True,HF-random,nz,True
3741,2012-10-24 00:00:00,S04,x,x,0.49308395385700005,0,1,1,529,7,2,pattern,"['x', 'm', 'n', 'z']",xmnzx,zx,True,HF-pattern,zz,False
3742,2012-10-24 00:00:00,S04,m,x,0.0837819576263,0,1,0,530,7,2,random,"['x', 'm', 'n', 'z']",xmnzx,zm,False,LF-random,zx,False
3744,2012-10-24 00:00:00,S04,m,m,0.05434298515319999,0,1,1,531,7,2,pattern,"['x', 'm', 'n', 'z']",xmnzx,xm,True,HF-pattern,xm,True
3745,2012-10-24 00:00:00,S04,x,x,0.317804098129,0,1,1,532,7,2,random,"['x', 'm', 'n', 'z']",xmnzx,mx,False,LF-random,mm,False
3746,2012-10-24 00:00:00,S04,n,x,0.107569932938,0,1,0,533,7,2,pattern,"['x', 'm', 'n', 'z']",xmnzx,mn,True,HF-pattern,mx,False
3748,2012-10-24 00:00:00,S04,n,n,0.127958059311,0,1,1,534,7,2,random,"['x', 'm', 'n', 'z']",xmnzx,xn,False,LF-random,xn,True
3749,2012-10-24 00:00:00,S04,z,z,0.325575113297,0,1,1,535,7,2,pattern,"['x', 'm', 'n', 'z']",xmnzx,nz,True,HF-pattern,nn,False
3750,2012-10-24 00:00:00,S04,z,z,0.09888315200810001,0,1,1,536,7,2,random,"['x', 'm', 'n', 'z']",xmnzx,nz,True,HF-random,nz,True
3751,2012-10-24 00:00:00,S04,x,x,0.600482940674,0,1,1,537,7,2,pattern,"['x', 'm', 'n', 'z']",xmnzx,zx,True,HF-pattern,zz,False
3752,2012-10-24 00:00:00,S04,m,x,0.122902870178,0,1,0,538,7,2,random,"['x', 'm', 'n', 'z']",xmnzx,zm,False,LF-random,zx,False
3754,2012-10-24 00:00:00,S04,m,m,0.5621931552889999,0,1,1,539,7,2,pattern,"['x', 'm', 'n', 'z']",xmnzx,xm,True,HF-pattern,xm,True
3755,2012-10-24 00:00:00,S04,x,x,0.485751867294,0,1,1,540,7,2,random,"['x', 'm', 'n', 'z']",xmnzx,mx,False,LF-random,mm,False
3756,2012-10-24 00:00:00,S04,n,x,0.060840845108,0,1,0,541,7,2,pattern,"['x', 'm', 'n', 'z']",xmnzx,mn,True,HF-pattern,mx,False
3758,2012-10-24 00:00:00,S04,n,n,0.056825876235999995,0,1,1,542,7,2,random,"['x', 'm', 'n', 'z']",xmnzx,xn,False,LF-random,xn,True
3759,2012-10-24 00:00:00,S04,z,z,0.288844108582,0,1,1,543,7,2,pattern,"['x', 'm', 'n', 'z']",xmnzx,nz,True,HF-pattern,nn,False
3760,2012-10-24 00:00:00,S04,z,z,0.207437038422,0,1,1,544,7,2,random,"['x', 'm', 'n', 'z']",xmnzx,nz,True,HF-random,nz,True
3761,2012-10-24 00:00:00,S04,x,x,0.44943189621000007,0,1,1,545,7,2,pattern,"['x', 'm', 'n', 'z']",xmnzx,zx,True,HF-pattern,zz,False
3762,2012-10-24 00:00:00,S04,m,x,0.169482946396,0,1,0,546,7,2,random,"['x', 'm', 'n', 'z']",xmnzx,zm,False,LF-random,zx,False
3764,2012-10-24 00:00:00,S04,m,m,0.115466117859,0,1,1,547,7,2,pattern,"['x', 'm', 'n', 'z']",xmnzx,xm,True,HF-pattern,xm,True
3765,2012-10-24 00:00:00,S04,x,x,0.408874034882,0,1,1,548,7,2,random,"['x', 'm', 'n', 'z']",xmnzx,mx,False,LF-random,mm,False
3766,2012-10-24 00:00:00,S04,n,x,0.16278910636900001,0,1,0,549,7,2,pattern,"['x', 'm', 'n', 'z']",xmnzx,mn,True,HF-pattern,mx,False
3768,2012-10-24 00:00:00,S04,n,n,0.150710105896,0,1,1,550,7,2,random,"['x', 'm', 'n', 'z']",xmnzx,xn,False,LF-random,xn,True
3769,2012-10-24 00:00:00,S04,z,z,0.41064000129699996,0,1,1,551,7,2,pattern,"['x', 'm', 'n', 'z']",xmnzx,nz,True,HF-pattern,nn,False
3770,2012-10-24 00:00:00,S04,z,z,0.228884935379,0,1,1,552,7,2,random,"['x', 'm', 'n', 'z']",xmnzx,nz,True,HF-random,nz,True
3771,2012-10-24 00:00:00,S04,x,x,0.341600894928,0,1,1,553,7,2,pattern,"['x', 'm', 'n', 'z']",xmnzx,zx,True,HF-pattern,zz,False
3772,2012-10-24 00:00:00,S04,m,x,0.0986661911011,0,1,0,554,7,2,random,"['x', 'm', 'n', 'z']",xmnzx,zm,False,LF-random,zx,False
3774,2012-10-24 00:00:00,S04,m,m,0.057998895645099996,0,1,1,555,7,2,pattern,"['x', 'm', 'n', 'z']",xmnzx,xm,True,HF-pattern,xm,True
3775,2012-10-24 00:00:00,S04,x,x,0.402006149292,0,1,1,556,7,2,random,"['x', 'm', 'n', 'z']",xmnzx,mx,False,LF-random,mm,False
3776,2012-10-24 00:00:00,S04,n,x,0.0600152015686,0,1,0,557,7,2,pattern,"['x', 'm', 'n', 'z']",xmnzx,mn,True,HF-pattern,mx,False
3778,2012-10-24 00:00:00,S04,n,n,0.066123008728,0,1,1,558,7,2,random,"['x', 'm', 'n', 'z']",xmnzx,xn,False,LF-random,xn,True
3779,2012-10-24 00:00:00,S04,z,z,0.328988075256,0,1,1,559,7,2,pattern,"['x', 'm', 'n', 'z']",xmnzx,nz,True,HF-pattern,nn,False
3780,2012-10-24 00:00:00,S04,z,z,0.0705890655518,0,1,1,560,7,2,random,"['x', 'm', 'n', 'z']",xmnzx,nz,True,HF-random,nz,True
3781,2012-10-24 00:00:00,S04,x,x,0.414114952087,0,1,1,561,8,2,pattern,"['x', 'm', 'n', 'z']",xmnzx,zx,True,HF-pattern,zz,False
3782,2012-10-24 00:00:00,S04,m,m,0.358589887619,0,1,1,562,8,2,random,"['x', 'm', 'n', 'z']",xmnzx,zm,False,LF-random,zx,False
3783,2012-10-24 00:00:00,S04,m,m,0.40306305885300003,0,1,1,563,8,2,pattern,"['x', 'm', 'n', 'z']",xmnzx,xm,True,HF-pattern,xm,True
3784,2012-10-24 00:00:00,S04,x,x,0.492517948151,0,1,1,564,8,2,random,"['x', 'm', 'n', 'z']",xmnzx,mx,False,LF-random,mm,False
3785,2012-10-24 00:00:00,S04,n,n,0.355981111526,0,1,1,565,8,2,pattern,"['x', 'm', 'n', 'z']",xmnzx,mn,True,HF-pattern,mx,False
3786,2012-10-24 00:00:00,S04,n,n,0.43129396438600004,0,1,1,566,8,2,random,"['x', 'm', 'n', 'z']",xmnzx,xn,False,LF-random,xn,True
3787,2012-10-24 00:00:00,S04,z,z,0.376362800598,0,1,1,567,8,2,pattern,"['x', 'm', 'n', 'z']",xmnzx,nz,True,HF-pattern,nn,False
3788,2012-10-24 00:00:00,S04,z,z,0.211474895477,0,1,1,568,8,2,random,"['x', 'm', 'n', 'z']",xmnzx,nz,True,HF-random,nz,True
3789,2012-10-24 00:00:00,S04,x,x,0.325761079788,0,1,1,569,8,2,pattern,"['x', 'm', 'n', 'z']",xmnzx,zx,True,HF-pattern,zz,False
3790,2012-10-24 00:00:00,S04,m,m,0.290582895279,0,1,1,570,8,2,random,"['x', 'm', 'n', 'z']",xmnzx,zm,False,LF-random,zx,False
3791,2012-10-24 00:00:00,S04,m,m,0.14556217193600002,0,1,1,571,8,2,pattern,"['x', 'm', 'n', 'z']",xmnzx,xm,True,HF-pattern,xm,True
3792,2012-10-24 00:00:00,S04,x,x,0.485924005508,0,1,1,572,8,2,random,"['x', 'm', 'n', 'z']",xmnzx,mx,False,LF-random,mm,False
3793,2012-10-24 00:00:00,S04,n,n,0.317050933838,0,1,1,573,8,2,pattern,"['x', 'm', 'n', 'z']",xmnzx,mn,True,HF-pattern,mx,False
3794,2012-10-24 00:00:00,S04,n,n,0.298283815384,0,1,1,574,8,2,random,"['x', 'm', 'n', 'z']",xmnzx,xn,False,LF-random,xn,True
3795,2012-10-24 00:00:00,S04,z,z,0.24828815460200002,0,1,1,575,8,2,pattern,"['x', 'm', 'n', 'z']",xmnzx,nz,True,HF-pattern,nn,False
3796,2012-10-24 00:00:00,S04,z,z,0.200360059738,0,1,1,576,8,2,random,"['x', 'm', 'n', 'z']",xmnzx,nz,True,HF-random,nz,True
3797,2012-10-24 00:00:00,S04,x,x,0.313649177551,0,1,1,577,8,2,pattern,"['x', 'm', 'n', 'z']",xmnzx,zx,True,HF-pattern,zz,False
3798,2012-10-24 00:00:00,S04,m,m,0.423772096634,0,1,1,578,8,2,random,"['x', 'm', 'n', 'z']",xmnzx,zm,False,LF-random,zx,False
3799,2012-10-24 00:00:00,S04,m,z,0.288547992706,0,1,0,579,8,2,pattern,"['x', 'm', 'n', 'z']",xmnzx,xm,True,HF-pattern,xm,True
3801,2012-10-24 00:00:00,S04,x,n,0.517162084579,0,1,0,580,8,2,random,"['x', 'm', 'n', 'z']",xmnzx,mx,False,LF-random,mm,False
3803,2012-10-24 00:00:00,S04,n,n,0.392338991165,0,1,1,581,8,2,pattern,"['x', 'm', 'n', 'z']",xmnzx,mn,True,HF-pattern,mx,False
3804,2012-10-24 00:00:00,S04,n,n,0.40254902839699996,0,1,1,582,8,2,random,"['x', 'm', 'n', 'z']",xmnzx,xn,False,LF-random,xn,True
3805,2012-10-24 00:00:00,S04,z,z,0.332906007767,0,1,1,583,8,2,pattern,"['x', 'm', 'n', 'z']",xmnzx,nz,True,HF-pattern,nn,False
3806,2012-10-24 00:00:00,S04,z,z,0.36097097396899996,0,1,1,584,8,2,random,"['x', 'm', 'n', 'z']",xmnzx,nz,True,HF-random,nz,True
3807,2012-10-24 00:00:00,S04,x,x,0.357450008392,0,1,1,585,8,2,pattern,"['x', 'm', 'n', 'z']",xmnzx,zx,True,HF-pattern,zz,False
3808,2012-10-24 00:00:00,S04,m,m,0.304988861084,0,1,1,586,8,2,random,"['x', 'm', 'n', 'z']",xmnzx,zm,False,LF-random,zx,False
3809,2012-10-24 00:00:00,S04,m,m,0.0635249614716,0,1,1,587,8,2,pattern,"['x', 'm', 'n', 'z']",xmnzx,xm,True,HF-pattern,xm,True
3810,2012-10-24 00:00:00,S04,x,z,0.37495493888899994,0,1,0,588,8,2,random,"['x', 'm', 'n', 'z']",xmnzx,mx,False,LF-random,mm,False
3812,2012-10-24 00:00:00,S04,n,n,0.294064044952,0,1,1,589,8,2,pattern,"['x', 'm', 'n', 'z']",xmnzx,mn,True,HF-pattern,mx,False
3813,2012-10-24 00:00:00,S04,n,n,0.324195861816,0,1,1,590,8,2,random,"['x', 'm', 'n', 'z']",xmnzx,xn,False,LF-random,xn,True
3814,2012-10-24 00:00:00,S04,z,z,0.306170225143,0,1,1,591,8,2,pattern,"['x', 'm', 'n', 'z']",xmnzx,nz,True,HF-pattern,nn,False
3815,2012-10-24 00:00:00,S04,z,z,0.351753950119,0,1,1,592,8,2,random,"['x', 'm', 'n', 'z']",xmnzx,nz,True,HF-random,nz,True
3816,2012-10-24 00:00:00,S04,x,x,0.300135135651,0,1,1,593,8,2,pattern,"['x', 'm', 'n', 'z']",xmnzx,zx,True,HF-pattern,zz,False
3817,2012-10-24 00:00:00,S04,m,m,0.361703157425,0,1,1,594,8,2,random,"['x', 'm', 'n', 'z']",xmnzx,zm,False,LF-random,zx,False
3818,2012-10-24 00:00:00,S04,m,m,0.102149963379,0,1,1,595,8,2,pattern,"['x', 'm', 'n', 'z']",xmnzx,xm,True,HF-pattern,xm,True
3819,2012-10-24 00:00:00,S04,x,x,0.39594697952299995,0,1,1,596,8,2,random,"['x', 'm', 'n', 'z']",xmnzx,mx,False,LF-random,mm,False
3820,2012-10-24 00:00:00,S04,n,n,0.310306072235,0,1,1,597,8,2,pattern,"['x', 'm', 'n', 'z']",xmnzx,mn,True,HF-pattern,mx,False
3821,2012-10-24 00:00:00,S04,n,n,0.40470290184,0,1,1,598,8,2,random,"['x', 'm', 'n', 'z']",xmnzx,xn,False,LF-random,xn,True
3822,2012-10-24 00:00:00,S04,z,z,0.302178144455,0,1,1,599,8,2,pattern,"['x', 'm', 'n', 'z']",xmnzx,nz,True,HF-pattern,nn,False
3823,2012-10-24 00:00:00,S04,z,z,0.332648992538,0,1,1,600,8,2,random,"['x', 'm', 'n', 'z']",xmnzx,nz,True,HF-random,nz,True
3824,2012-10-24 00:00:00,S04,x,x,0.328629016876,0,1,1,601,8,2,pattern,"['x', 'm', 'n', 'z']",xmnzx,zx,True,HF-pattern,zz,False
3825,2012-10-24 00:00:00,S04,m,m,0.342561006546,0,1,1,602,8,2,random,"['x', 'm', 'n', 'z']",xmnzx,zm,False,LF-random,zx,False
3826,2012-10-24 00:00:00,S04,m,m,0.0165758132935,0,1,1,603,8,2,pattern,"['x', 'm', 'n', 'z']",xmnzx,xm,True,HF-pattern,xm,True
3827,2012-10-24 00:00:00,S04,x,x,0.39383506774899996,0,1,1,604,8,2,random,"['x', 'm', 'n', 'z']",xmnzx,mx,False,LF-random,mm,False
3828,2012-10-24 00:00:00,S04,n,n,0.388396024704,0,1,1,605,8,2,pattern,"['x', 'm', 'n', 'z']",xmnzx,mn,True,HF-pattern,mx,False
3829,2012-10-24 00:00:00,S04,n,n,0.319239139557,0,1,1,606,8,2,random,"['x', 'm', 'n', 'z']",xmnzx,xn,False,LF-random,xn,True
3830,2012-10-24 00:00:00,S04,z,z,0.236581087112,0,1,1,607,8,2,pattern,"['x', 'm', 'n', 'z']",xmnzx,nz,True,HF-pattern,nn,False
3831,2012-10-24 00:00:00,S04,z,z,0.316811084747,0,1,1,608,8,2,random,"['x', 'm', 'n', 'z']",xmnzx,nz,True,HF-random,nz,True
3832,2012-10-24 00:00:00,S04,x,x,0.298439025879,0,1,1,609,8,2,pattern,"['x', 'm', 'n', 'z']",xmnzx,zx,True,HF-pattern,zz,False
3833,2012-10-24 00:00:00,S04,m,m,0.312242984772,0,1,1,610,8,2,random,"['x', 'm', 'n', 'z']",xmnzx,zm,False,LF-random,zx,False
3834,2012-10-24 00:00:00,S04,m,m,0.054354190826399994,0,1,1,611,8,2,pattern,"['x', 'm', 'n', 'z']",xmnzx,xm,True,HF-pattern,xm,True
3835,2012-10-24 00:00:00,S04,x,x,0.382608890533,0,1,1,612,8,2,random,"['x', 'm', 'n', 'z']",xmnzx,mx,False,LF-random,mm,False
3836,2012-10-24 00:00:00,S04,n,m,0.441087961197,0,1,0,613,8,2,pattern,"['x', 'm', 'n', 'z']",xmnzx,mn,True,HF-pattern,mx,False
3838,2012-10-24 00:00:00,S04,n,n,0.0580170154572,0,1,1,614,8,2,random,"['x', 'm', 'n', 'z']",xmnzx,xn,False,LF-random,xn,True
3839,2012-10-24 00:00:00,S04,z,z,0.337908029556,0,1,1,615,8,2,pattern,"['x', 'm', 'n', 'z']",xmnzx,nz,True,HF-pattern,nn,False
3840,2012-10-24 00:00:00,S04,z,z,0.318475961685,0,1,1,616,8,2,random,"['x', 'm', 'n', 'z']",xmnzx,nz,True,HF-random,nz,True
3841,2012-10-24 00:00:00,S04,x,z,0.17156291008000002,0,1,0,617,8,2,pattern,"['x', 'm', 'n', 'z']",xmnzx,zx,True,HF-pattern,zz,False
3843,2012-10-24 00:00:00,S04,m,m,0.325750112534,0,1,1,618,8,2,random,"['x', 'm', 'n', 'z']",xmnzx,zm,False,LF-random,zx,False
3844,2012-10-24 00:00:00,S04,m,m,0.0507588386536,0,1,1,619,8,2,pattern,"['x', 'm', 'n', 'z']",xmnzx,xm,True,HF-pattern,xm,True
3845,2012-10-24 00:00:00,S04,x,x,0.330955982208,0,1,1,620,8,2,random,"['x', 'm', 'n', 'z']",xmnzx,mx,False,LF-random,mm,False
3846,2012-10-24 00:00:00,S04,n,n,0.455122947693,0,1,1,621,8,2,pattern,"['x', 'm', 'n', 'z']",xmnzx,mn,True,HF-pattern,mx,False
3847,2012-10-24 00:00:00,S04,n,n,0.0316240787506,0,1,1,622,8,2,random,"['x', 'm', 'n', 'z']",xmnzx,xn,False,LF-random,xn,True
3848,2012-10-24 00:00:00,S04,z,z,0.29629611969,0,1,1,623,8,2,pattern,"['x', 'm', 'n', 'z']",xmnzx,nz,True,HF-pattern,nn,False
3849,2012-10-24 00:00:00,S04,z,z,0.262365102768,0,1,1,624,8,2,random,"['x', 'm', 'n', 'z']",xmnzx,nz,True,HF-random,nz,True
3850,2012-10-24 00:00:00,S04,x,x,0.24692296981800002,0,1,1,625,8,2,pattern,"['x', 'm', 'n', 'z']",xmnzx,zx,True,HF-pattern,zz,False
3851,2012-10-24 00:00:00,S04,m,m,0.310540914536,0,1,1,626,8,2,random,"['x', 'm', 'n', 'z']",xmnzx,zm,False,LF-random,zx,False
3852,2012-10-24 00:00:00,S04,m,m,0.020792007446299998,0,1,1,627,8,2,pattern,"['x', 'm', 'n', 'z']",xmnzx,xm,True,HF-pattern,xm,True
3853,2012-10-24 00:00:00,S04,x,x,0.33414292335499995,0,1,1,628,8,2,random,"['x', 'm', 'n', 'z']",xmnzx,mx,False,LF-random,mm,False
3854,2012-10-24 00:00:00,S04,n,n,0.426840782166,0,1,1,629,8,2,pattern,"['x', 'm', 'n', 'z']",xmnzx,mn,True,HF-pattern,mx,False
3855,2012-10-24 00:00:00,S04,n,n,0.46825718879699996,0,1,1,630,8,2,random,"['x', 'm', 'n', 'z']",xmnzx,xn,False,LF-random,xn,True
3856,2012-10-24 00:00:00,S04,z,z,0.379197835922,0,1,1,631,8,2,pattern,"['x', 'm', 'n', 'z']",xmnzx,nz,True,HF-pattern,nn,False
3857,2012-10-24 00:00:00,S04,z,z,0.342814207077,0,1,1,632,8,2,random,"['x', 'm', 'n', 'z']",xmnzx,nz,True,HF-random,nz,True
3858,2012-10-24 00:00:00,S04,x,x,0.38716697692900004,0,1,1,633,8,2,pattern,"['x', 'm', 'n', 'z']",xmnzx,zx,True,HF-pattern,zz,False
3859,2012-10-24 00:00:00,S04,m,m,0.334376096725,0,1,1,634,8,2,random,"['x', 'm', 'n', 'z']",xmnzx,zm,False,LF-random,zx,False
3860,2012-10-24 00:00:00,S04,m,m,0.010720014572100001,0,1,1,635,8,2,pattern,"['x', 'm', 'n', 'z']",xmnzx,xm,True,HF-pattern,xm,True
3861,2012-10-24 00:00:00,S04,x,x,0.276839017868,0,1,1,636,8,2,random,"['x', 'm', 'n', 'z']",xmnzx,mx,False,LF-random,mm,False
3862,2012-10-24 00:00:00,S04,n,x,0.180079936981,0,1,0,637,8,2,pattern,"['x', 'm', 'n', 'z']",xmnzx,mn,True,HF-pattern,mx,False
3864,2012-10-24 00:00:00,S04,n,n,0.008682012557979998,0,1,1,638,8,2,random,"['x', 'm', 'n', 'z']",xmnzx,xn,False,LF-random,xn,True
3865,2012-10-24 00:00:00,S04,z,z,0.27482199668900004,0,1,1,639,8,2,pattern,"['x', 'm', 'n', 'z']",xmnzx,nz,True,HF-pattern,nn,False
3866,2012-10-24 00:00:00,S04,z,z,0.36979198455799994,0,1,1,640,8,2,random,"['x', 'm', 'n', 'z']",xmnzx,nz,True,HF-random,nz,True
3867,2012-10-24 00:00:00,S04,x,n,0.026486158371,0,1,0,641,9,2,pattern,"['x', 'm', 'n', 'z']",xmnzx,zx,True,HF-pattern,zz,False
3870,2012-10-24 00:00:00,S04,m,m,0.348311185837,0,1,1,642,9,2,random,"['x', 'm', 'n', 'z']",xmnzx,zm,False,LF-random,zx,False
3871,2012-10-24 00:00:00,S04,m,m,0.42460393905599997,0,1,1,643,9,2,pattern,"['x', 'm', 'n', 'z']",xmnzx,xm,True,HF-pattern,xm,True
3872,2012-10-24 00:00:00,S04,x,x,0.481423854828,0,1,1,644,9,2,random,"['x', 'm', 'n', 'z']",xmnzx,mx,False,LF-random,mm,False
3873,2012-10-24 00:00:00,S04,n,n,0.264518022537,0,1,1,645,9,2,pattern,"['x', 'm', 'n', 'z']",xmnzx,mn,True,HF-pattern,mx,False
3874,2012-10-24 00:00:00,S04,n,n,0.48741102218599996,0,1,1,646,9,2,random,"['x', 'm', 'n', 'z']",xmnzx,xn,False,LF-random,xn,True
3875,2012-10-24 00:00:00,S04,z,x,0.25471997261,0,1,0,647,9,2,pattern,"['x', 'm', 'n', 'z']",xmnzx,nz,True,HF-pattern,nn,False
3877,2012-10-24 00:00:00,S04,z,n,0.0961329936981,0,1,0,648,9,2,random,"['x', 'm', 'n', 'z']",xmnzx,nz,True,HF-random,nz,True
3879,2012-10-24 00:00:00,S04,x,x,0.5654029846190001,0,1,1,649,9,2,pattern,"['x', 'm', 'n', 'z']",xmnzx,zx,True,HF-pattern,zz,False
3880,2012-10-24 00:00:00,S04,m,m,0.408662796021,0,1,1,650,9,2,random,"['x', 'm', 'n', 'z']",xmnzx,zm,False,LF-random,zx,False
3881,2012-10-24 00:00:00,S04,m,m,0.37114906310999995,0,1,1,651,9,2,pattern,"['x', 'm', 'n', 'z']",xmnzx,xm,True,HF-pattern,xm,True
3882,2012-10-24 00:00:00,S04,x,x,0.477878093719,0,1,1,652,9,2,random,"['x', 'm', 'n', 'z']",xmnzx,mx,False,LF-random,mm,False
3883,2012-10-24 00:00:00,S04,n,n,0.30967187881499997,0,1,1,653,9,2,pattern,"['x', 'm', 'n', 'z']",xmnzx,mn,True,HF-pattern,mx,False
3884,2012-10-24 00:00:00,S04,n,n,0.259262084961,0,1,1,654,9,2,random,"['x', 'm', 'n', 'z']",xmnzx,xn,False,LF-random,xn,True
3885,2012-10-24 00:00:00,S04,z,z,0.307708978653,0,1,1,655,9,2,pattern,"['x', 'm', 'n', 'z']",xmnzx,nz,True,HF-pattern,nn,False
3886,2012-10-24 00:00:00,S04,z,z,0.32174921035799997,0,1,1,656,9,2,random,"['x', 'm', 'n', 'z']",xmnzx,nz,True,HF-random,nz,True
3887,2012-10-24 00:00:00,S04,x,x,0.286993980408,0,1,1,657,9,2,pattern,"['x', 'm', 'n', 'z']",xmnzx,zx,True,HF-pattern,zz,False
3888,2012-10-24 00:00:00,S04,m,n,0.23797917366000002,0,1,0,658,9,2,random,"['x', 'm', 'n', 'z']",xmnzx,zm,False,LF-random,zx,False
3890,2012-10-24 00:00:00,S04,m,m,0.164267778397,0,1,1,659,9,2,pattern,"['x', 'm', 'n', 'z']",xmnzx,xm,True,HF-pattern,xm,True
3891,2012-10-24 00:00:00,S04,x,x,0.519398212433,0,1,1,660,9,2,random,"['x', 'm', 'n', 'z']",xmnzx,mx,False,LF-random,mm,False
3892,2012-10-24 00:00:00,S04,n,n,0.26896405219999997,0,1,1,661,9,2,pattern,"['x', 'm', 'n', 'z']",xmnzx,mn,True,HF-pattern,mx,False
3893,2012-10-24 00:00:00,S04,n,n,0.284250020981,0,1,1,662,9,2,random,"['x', 'm', 'n', 'z']",xmnzx,xn,False,LF-random,xn,True
3894,2012-10-24 00:00:00,S04,z,z,0.378592967987,0,1,1,663,9,2,pattern,"['x', 'm', 'n', 'z']",xmnzx,nz,True,HF-pattern,nn,False
3895,2012-10-24 00:00:00,S04,z,z,0.229724168777,0,1,1,664,9,2,random,"['x', 'm', 'n', 'z']",xmnzx,nz,True,HF-random,nz,True
3896,2012-10-24 00:00:00,S04,x,x,0.421689033508,0,1,1,665,9,2,pattern,"['x', 'm', 'n', 'z']",xmnzx,zx,True,HF-pattern,zz,False
3897,2012-10-24 00:00:00,S04,m,x,0.159514188766,0,1,0,666,9,2,random,"['x', 'm', 'n', 'z']",xmnzx,zm,False,LF-random,zx,False
3899,2012-10-24 00:00:00,S04,m,m,0.170064926147,0,1,1,667,9,2,pattern,"['x', 'm', 'n', 'z']",xmnzx,xm,True,HF-pattern,xm,True
3900,2012-10-24 00:00:00,S04,x,z,0.31754899025,0,1,0,668,9,2,random,"['x', 'm', 'n', 'z']",xmnzx,mx,False,LF-random,mm,False
3902,2012-10-24 00:00:00,S04,n,n,0.380941867828,0,1,1,669,9,2,pattern,"['x', 'm', 'n', 'z']",xmnzx,mn,True,HF-pattern,mx,False
3903,2012-10-24 00:00:00,S04,n,n,0.311293125153,0,1,1,670,9,2,random,"['x', 'm', 'n', 'z']",xmnzx,xn,False,LF-random,xn,True
3904,2012-10-24 00:00:00,S04,z,z,0.293427944183,0,1,1,671,9,2,pattern,"['x', 'm', 'n', 'z']",xmnzx,nz,True,HF-pattern,nn,False
3905,2012-10-24 00:00:00,S04,z,z,0.22809004783599998,0,1,1,672,9,2,random,"['x', 'm', 'n', 'z']",xmnzx,nz,True,HF-random,nz,True
3906,2012-10-24 00:00:00,S04,x,x,0.357076883316,0,1,1,673,9,2,pattern,"['x', 'm', 'n', 'z']",xmnzx,zx,True,HF-pattern,zz,False
3907,2012-10-24 00:00:00,S04,m,x,0.17771816253699999,0,1,0,674,9,2,random,"['x', 'm', 'n', 'z']",xmnzx,zm,False,LF-random,zx,False
3909,2012-10-24 00:00:00,S04,m,m,0.153829097748,0,1,1,675,9,2,pattern,"['x', 'm', 'n', 'z']",xmnzx,xm,True,HF-pattern,xm,True
3910,2012-10-24 00:00:00,S04,x,z,0.31817984581000003,0,1,0,676,9,2,random,"['x', 'm', 'n', 'z']",xmnzx,mx,False,LF-random,mm,False
3912,2012-10-24 00:00:00,S04,n,n,0.413456916809,0,1,1,677,9,2,pattern,"['x', 'm', 'n', 'z']",xmnzx,mn,True,HF-pattern,mx,False
3913,2012-10-24 00:00:00,S04,n,n,0.374384880066,0,1,1,678,9,2,random,"['x', 'm', 'n', 'z']",xmnzx,xn,False,LF-random,xn,True
3914,2012-10-24 00:00:00,S04,z,z,0.338267087936,0,1,1,679,9,2,pattern,"['x', 'm', 'n', 'z']",xmnzx,nz,True,HF-pattern,nn,False
3915,2012-10-24 00:00:00,S04,z,z,0.126832008362,0,1,1,680,9,2,random,"['x', 'm', 'n', 'z']",xmnzx,nz,True,HF-random,nz,True
3916,2012-10-24 00:00:00,S04,x,x,0.403641939163,0,1,1,681,9,2,pattern,"['x', 'm', 'n', 'z']",xmnzx,zx,True,HF-pattern,zz,False
3917,2012-10-24 00:00:00,S04,m,m,0.429870128632,0,1,1,682,9,2,random,"['x', 'm', 'n', 'z']",xmnzx,zm,False,LF-random,zx,False
3918,2012-10-24 00:00:00,S04,m,m,0.0705511569977,0,1,1,683,9,2,pattern,"['x', 'm', 'n', 'z']",xmnzx,xm,True,HF-pattern,xm,True
3919,2012-10-24 00:00:00,S04,x,x,0.5260970592499999,0,1,1,684,9,2,random,"['x', 'm', 'n', 'z']",xmnzx,mx,False,LF-random,mm,False
3920,2012-10-24 00:00:00,S04,n,n,0.338855028152,0,1,1,685,9,2,pattern,"['x', 'm', 'n', 'z']",xmnzx,mn,True,HF-pattern,mx,False
3921,2012-10-24 00:00:00,S04,n,n,0.11204004287699999,0,1,1,686,9,2,random,"['x', 'm', 'n', 'z']",xmnzx,xn,False,LF-random,xn,True
3922,2012-10-24 00:00:00,S04,z,z,0.341499090195,0,1,1,687,9,2,pattern,"['x', 'm', 'n', 'z']",xmnzx,nz,True,HF-pattern,nn,False
3923,2012-10-24 00:00:00,S04,z,z,0.514529943466,0,1,1,688,9,2,random,"['x', 'm', 'n', 'z']",xmnzx,nz,True,HF-random,nz,True
3924,2012-10-24 00:00:00,S04,x,x,0.359513044357,0,1,1,689,9,2,pattern,"['x', 'm', 'n', 'z']",xmnzx,zx,True,HF-pattern,zz,False
3925,2012-10-24 00:00:00,S04,m,m,0.467961072922,0,1,1,690,9,2,random,"['x', 'm', 'n', 'z']",xmnzx,zm,False,LF-random,zx,False
3926,2012-10-24 00:00:00,S04,m,m,0.027113914489700002,0,1,1,691,9,2,pattern,"['x', 'm', 'n', 'z']",xmnzx,xm,True,HF-pattern,xm,True
3927,2012-10-24 00:00:00,S04,x,x,0.43653011321999996,0,1,1,692,9,2,random,"['x', 'm', 'n', 'z']",xmnzx,mx,False,LF-random,mm,False
3928,2012-10-24 00:00:00,S04,n,n,0.284909009933,0,1,1,693,9,2,pattern,"['x', 'm', 'n', 'z']",xmnzx,mn,True,HF-pattern,mx,False
3929,2012-10-24 00:00:00,S04,n,n,0.204003095627,0,1,1,694,9,2,random,"['x', 'm', 'n', 'z']",xmnzx,xn,False,LF-random,xn,True
3930,2012-10-24 00:00:00,S04,z,z,0.237794160843,0,1,1,695,9,2,pattern,"['x', 'm', 'n', 'z']",xmnzx,nz,True,HF-pattern,nn,False
3931,2012-10-24 00:00:00,S04,z,z,0.17424988746599998,0,1,1,696,9,2,random,"['x', 'm', 'n', 'z']",xmnzx,nz,True,HF-random,nz,True
3932,2012-10-24 00:00:00,S04,x,x,0.28965020179699996,0,1,1,697,9,2,pattern,"['x', 'm', 'n', 'z']",xmnzx,zx,True,HF-pattern,zz,False
3933,2012-10-24 00:00:00,S04,m,m,0.400061845779,0,1,1,698,9,2,random,"['x', 'm', 'n', 'z']",xmnzx,zm,False,LF-random,zx,False
3934,2012-10-24 00:00:00,S04,m,m,0.026340961456299997,0,1,1,699,9,2,pattern,"['x', 'm', 'n', 'z']",xmnzx,xm,True,HF-pattern,xm,True
3935,2012-10-24 00:00:00,S04,x,x,0.435716867447,0,1,1,700,9,2,random,"['x', 'm', 'n', 'z']",xmnzx,mx,False,LF-random,mm,False
3936,2012-10-24 00:00:00,S04,n,n,0.299900054932,0,1,1,701,9,2,pattern,"['x', 'm', 'n', 'z']",xmnzx,mn,True,HF-pattern,mx,False
3937,2012-10-24 00:00:00,S04,n,n,0.330319166183,0,1,1,702,9,2,random,"['x', 'm', 'n', 'z']",xmnzx,xn,False,LF-random,xn,True
3938,2012-10-24 00:00:00,S04,z,z,0.35851597785899997,0,1,1,703,9,2,pattern,"['x', 'm', 'n', 'z']",xmnzx,nz,True,HF-pattern,nn,False
3939,2012-10-24 00:00:00,S04,z,z,0.418967962265,0,1,1,704,9,2,random,"['x', 'm', 'n', 'z']",xmnzx,nz,True,HF-random,nz,True
3940,2012-10-24 00:00:00,S04,x,x,0.347818851471,0,1,1,705,9,2,pattern,"['x', 'm', 'n', 'z']",xmnzx,zx,True,HF-pattern,zz,False
3941,2012-10-24 00:00:00,S04,m,m,0.424207925797,0,1,1,706,9,2,random,"['x', 'm', 'n', 'z']",xmnzx,zm,False,LF-random,zx,False
3942,2012-10-24 00:00:00,S04,m,m,0.0174999237061,0,1,1,707,9,2,pattern,"['x', 'm', 'n', 'z']",xmnzx,xm,True,HF-pattern,xm,True
3943,2012-10-24 00:00:00,S04,x,x,0.41096997261,0,1,1,708,9,2,random,"['x', 'm', 'n', 'z']",xmnzx,mx,False,LF-random,mm,False
3944,2012-10-24 00:00:00,S04,n,n,0.34034299850500005,0,1,1,709,9,2,pattern,"['x', 'm', 'n', 'z']",xmnzx,mn,True,HF-pattern,mx,False
3945,2012-10-24 00:00:00,S04,n,n,0.20971894264199997,0,1,1,710,9,2,random,"['x', 'm', 'n', 'z']",xmnzx,xn,False,LF-random,xn,True
3946,2012-10-24 00:00:00,S04,z,z,0.323683977127,0,1,1,711,9,2,pattern,"['x', 'm', 'n', 'z']",xmnzx,nz,True,HF-pattern,nn,False
3947,2012-10-24 00:00:00,S04,z,z,0.656659841537,0,1,1,712,9,2,random,"['x', 'm', 'n', 'z']",xmnzx,nz,True,HF-random,nz,True
3948,2012-10-24 00:00:00,S04,x,x,0.416285037994,0,1,1,713,9,2,pattern,"['x', 'm', 'n', 'z']",xmnzx,zx,True,HF-pattern,zz,False
3949,2012-10-24 00:00:00,S04,m,n,0.138250112534,0,1,0,714,9,2,random,"['x', 'm', 'n', 'z']",xmnzx,zm,False,LF-random,zx,False
3951,2012-10-24 00:00:00,S04,m,m,0.033799886703499996,0,1,1,715,9,2,pattern,"['x', 'm', 'n', 'z']",xmnzx,xm,True,HF-pattern,xm,True
3952,2012-10-24 00:00:00,S04,x,x,0.346117019653,0,1,1,716,9,2,random,"['x', 'm', 'n', 'z']",xmnzx,mx,False,LF-random,mm,False
3953,2012-10-24 00:00:00,S04,n,n,0.326833963394,0,1,1,717,9,2,pattern,"['x', 'm', 'n', 'z']",xmnzx,mn,True,HF-pattern,mx,False
3954,2012-10-24 00:00:00,S04,n,n,0.0520989894867,0,1,1,718,9,2,random,"['x', 'm', 'n', 'z']",xmnzx,xn,False,LF-random,xn,True
3955,2012-10-24 00:00:00,S04,z,z,0.34812092781099996,0,1,1,719,9,2,pattern,"['x', 'm', 'n', 'z']",xmnzx,nz,True,HF-pattern,nn,False
3956,2012-10-24 00:00:00,S04,z,z,0.167825937271,0,1,1,720,9,2,random,"['x', 'm', 'n', 'z']",xmnzx,nz,True,HF-random,nz,True
3957,2012-10-24 00:00:00,S04,x,m,0.1326649189,0,1,0,721,10,2,pattern,"['x', 'm', 'n', 'z']",xmnzx,zx,True,HF-pattern,zz,False
3960,2012-10-24 00:00:00,S04,m,m,0.351747989655,0,1,1,722,10,2,random,"['x', 'm', 'n', 'z']",xmnzx,zm,False,LF-random,zx,False
3961,2012-10-24 00:00:00,S04,m,m,0.18781685829199998,0,1,1,723,10,2,pattern,"['x', 'm', 'n', 'z']",xmnzx,xm,True,HF-pattern,xm,True
3962,2012-10-24 00:00:00,S04,x,x,0.654004096985,0,1,1,724,10,2,random,"['x', 'm', 'n', 'z']",xmnzx,mx,False,LF-random,mm,False
3963,2012-10-24 00:00:00,S04,n,n,0.36642599105800006,0,1,1,725,10,2,pattern,"['x', 'm', 'n', 'z']",xmnzx,mn,True,HF-pattern,mx,False
3964,2012-10-24 00:00:00,S04,n,n,0.121853113174,0,1,1,726,10,2,random,"['x', 'm', 'n', 'z']",xmnzx,xn,False,LF-random,xn,True
3965,2012-10-24 00:00:00,S04,z,z,0.351137161255,0,1,1,727,10,2,pattern,"['x', 'm', 'n', 'z']",xmnzx,nz,True,HF-pattern,nn,False
3966,2012-10-24 00:00:00,S04,z,z,0.17130112647999998,0,1,1,728,10,2,random,"['x', 'm', 'n', 'z']",xmnzx,nz,True,HF-random,nz,True
3967,2012-10-24 00:00:00,S04,x,x,0.36617207527199996,0,1,1,729,10,2,pattern,"['x', 'm', 'n', 'z']",xmnzx,zx,True,HF-pattern,zz,False
3968,2012-10-24 00:00:00,S04,m,x,0.10576605796800001,0,1,0,730,10,2,random,"['x', 'm', 'n', 'z']",xmnzx,zm,False,LF-random,zx,False
3970,2012-10-24 00:00:00,S04,m,m,0.0682430267334,0,1,1,731,10,2,pattern,"['x', 'm', 'n', 'z']",xmnzx,xm,True,HF-pattern,xm,True
3971,2012-10-24 00:00:00,S04,x,x,0.39586019516000004,0,1,1,732,10,2,random,"['x', 'm', 'n', 'z']",xmnzx,mx,False,LF-random,mm,False
3972,2012-10-24 00:00:00,S04,n,x,0.05446004867549999,0,1,0,733,10,2,pattern,"['x', 'm', 'n', 'z']",xmnzx,mn,True,HF-pattern,mx,False
3974,2012-10-24 00:00:00,S04,n,n,0.0316851139069,0,1,1,734,10,2,random,"['x', 'm', 'n', 'z']",xmnzx,xn,False,LF-random,xn,True
3975,2012-10-24 00:00:00,S04,z,z,0.296493053436,0,1,1,735,10,2,pattern,"['x', 'm', 'n', 'z']",xmnzx,nz,True,HF-pattern,nn,False
3976,2012-10-24 00:00:00,S04,z,z,0.102196931839,0,1,1,736,10,2,random,"['x', 'm', 'n', 'z']",xmnzx,nz,True,HF-random,nz,True
3977,2012-10-24 00:00:00,S04,x,x,0.284385919571,0,1,1,737,10,2,pattern,"['x', 'm', 'n', 'z']",xmnzx,zx,True,HF-pattern,zz,False
3978,2012-10-24 00:00:00,S04,m,x,0.0755410194397,0,1,0,738,10,2,random,"['x', 'm', 'n', 'z']",xmnzx,zm,False,LF-random,zx,False
3980,2012-10-24 00:00:00,S04,m,m,0.0703988075256,0,1,1,739,10,2,pattern,"['x', 'm', 'n', 'z']",xmnzx,xm,True,HF-pattern,xm,True
3981,2012-10-24 00:00:00,S04,x,x,0.301691055298,0,1,1,740,10,2,random,"['x', 'm', 'n', 'z']",xmnzx,mx,False,LF-random,mm,False
3982,2012-10-24 00:00:00,S04,n,x,0.0917689800262,0,1,0,741,10,2,pattern,"['x', 'm', 'n', 'z']",xmnzx,mn,True,HF-pattern,mx,False
3984,2012-10-24 00:00:00,S04,n,n,0.038260936737099994,0,1,1,742,10,2,random,"['x', 'm', 'n', 'z']",xmnzx,xn,False,LF-random,xn,True
3985,2012-10-24 00:00:00,S04,z,z,0.31897187233,0,1,1,743,10,2,pattern,"['x', 'm', 'n', 'z']",xmnzx,nz,True,HF-pattern,nn,False
3986,2012-10-24 00:00:00,S04,z,z,0.44895815849299997,0,1,1,744,10,2,random,"['x', 'm', 'n', 'z']",xmnzx,nz,True,HF-random,nz,True
3987,2012-10-24 00:00:00,S04,x,x,0.440455913544,0,1,1,745,10,2,pattern,"['x', 'm', 'n', 'z']",xmnzx,zx,True,HF-pattern,zz,False
3988,2012-10-24 00:00:00,S04,m,x,0.0657298564911,0,1,0,746,10,2,random,"['x', 'm', 'n', 'z']",xmnzx,zm,False,LF-random,zx,False
3990,2012-10-24 00:00:00,S04,m,m,0.0441858768463,0,1,1,747,10,2,pattern,"['x', 'm', 'n', 'z']",xmnzx,xm,True,HF-pattern,xm,True
3991,2012-10-24 00:00:00,S04,x,x,0.24487519264199997,0,1,1,748,10,2,random,"['x', 'm', 'n', 'z']",xmnzx,mx,False,LF-random,mm,False
3992,2012-10-24 00:00:00,S04,n,x,0.101572990417,0,1,0,749,10,2,pattern,"['x', 'm', 'n', 'z']",xmnzx,mn,True,HF-pattern,mx,False
3994,2012-10-24 00:00:00,S04,n,n,0.076397895813,0,1,1,750,10,2,random,"['x', 'm', 'n', 'z']",xmnzx,xn,False,LF-random,xn,True
3995,2012-10-24 00:00:00,S04,z,z,0.259454965591,0,1,1,751,10,2,pattern,"['x', 'm', 'n', 'z']",xmnzx,nz,True,HF-pattern,nn,False
3996,2012-10-24 00:00:00,S04,z,z,0.29111289978,0,1,1,752,10,2,random,"['x', 'm', 'n', 'z']",xmnzx,nz,True,HF-random,nz,True
3997,2012-10-24 00:00:00,S04,x,x,0.386507034302,0,1,1,753,10,2,pattern,"['x', 'm', 'n', 'z']",xmnzx,zx,True,HF-pattern,zz,False
3998,2012-10-24 00:00:00,S04,m,x,0.0768740177155,0,1,0,754,10,2,random,"['x', 'm', 'n', 'z']",xmnzx,zm,False,LF-random,zx,False
4000,2012-10-24 00:00:00,S04,m,m,0.053540945053099996,0,1,1,755,10,2,pattern,"['x', 'm', 'n', 'z']",xmnzx,xm,True,HF-pattern,xm,True
4001,2012-10-24 00:00:00,S04,x,z,0.33360195159899997,0,1,0,756,10,2,random,"['x', 'm', 'n', 'z']",xmnzx,mx,False,LF-random,mm,False
4003,2012-10-24 00:00:00,S04,n,n,0.462409973145,0,1,1,757,10,2,pattern,"['x', 'm', 'n', 'z']",xmnzx,mn,True,HF-pattern,mx,False
4004,2012-10-24 00:00:00,S04,n,n,0.295145988464,0,1,1,758,10,2,random,"['x', 'm', 'n', 'z']",xmnzx,xn,False,LF-random,xn,True
4005,2012-10-24 00:00:00,S04,z,z,0.309133052826,0,1,1,759,10,2,pattern,"['x', 'm', 'n', 'z']",xmnzx,nz,True,HF-pattern,nn,False
4006,2012-10-24 00:00:00,S04,z,z,0.37157106399499995,0,1,1,760,10,2,random,"['x', 'm', 'n', 'z']",xmnzx,nz,True,HF-random,nz,True
4007,2012-10-24 00:00:00,S04,x,x,0.446241855621,0,1,1,761,10,2,pattern,"['x', 'm', 'n', 'z']",xmnzx,zx,True,HF-pattern,zz,False
4008,2012-10-24 00:00:00,S04,m,x,0.07070708274839999,0,1,0,762,10,2,random,"['x', 'm', 'n', 'z']",xmnzx,zm,False,LF-random,zx,False
4010,2012-10-24 00:00:00,S04,m,m,0.06524801254269999,0,1,1,763,10,2,pattern,"['x', 'm', 'n', 'z']",xmnzx,xm,True,HF-pattern,xm,True
4011,2012-10-24 00:00:00,S04,x,x,0.440519094467,0,1,1,764,10,2,random,"['x', 'm', 'n', 'z']",xmnzx,mx,False,LF-random,mm,False
4012,2012-10-24 00:00:00,S04,n,x,0.0973401069641,0,1,0,765,10,2,pattern,"['x', 'm', 'n', 'z']",xmnzx,mn,True,HF-pattern,mx,False
4014,2012-10-24 00:00:00,S04,n,n,0.0573978424072,0,1,1,766,10,2,random,"['x', 'm', 'n', 'z']",xmnzx,xn,False,LF-random,xn,True
4015,2012-10-24 00:00:00,S04,z,z,0.353420972824,0,1,1,767,10,2,pattern,"['x', 'm', 'n', 'z']",xmnzx,nz,True,HF-pattern,nn,False
4016,2012-10-24 00:00:00,S04,z,z,0.07732391357419999,0,1,1,768,10,2,random,"['x', 'm', 'n', 'z']",xmnzx,nz,True,HF-random,nz,True
4017,2012-10-24 00:00:00,S04,x,x,0.516752004623,0,1,1,769,10,2,pattern,"['x', 'm', 'n', 'z']",xmnzx,zx,True,HF-pattern,zz,False
4018,2012-10-24 00:00:00,S04,m,x,0.105862140656,0,1,0,770,10,2,random,"['x', 'm', 'n', 'z']",xmnzx,zm,False,LF-random,zx,False
4020,2012-10-24 00:00:00,S04,m,x,0.303276062012,0,1,0,771,10,2,pattern,"['x', 'm', 'n', 'z']",xmnzx,xm,True,HF-pattern,xm,True
4022,2012-10-24 00:00:00,S04,x,x,0.37754201889,0,1,1,772,10,2,random,"['x', 'm', 'n', 'z']",xmnzx,mx,False,LF-random,mm,False
4023,2012-10-24 00:00:00,S04,n,x,0.149491071701,0,1,0,773,10,2,pattern,"['x', 'm', 'n', 'z']",xmnzx,mn,True,HF-pattern,mx,False
4025,2012-10-24 00:00:00,S04,n,n,0.07247591018680001,0,1,1,774,10,2,random,"['x', 'm', 'n', 'z']",xmnzx,xn,False,LF-random,xn,True
4026,2012-10-24 00:00:00,S04,z,z,0.223852872849,0,1,1,775,10,2,pattern,"['x', 'm', 'n', 'z']",xmnzx,nz,True,HF-pattern,nn,False
4027,2012-10-24 00:00:00,S04,z,z,0.08119511604310001,0,1,1,776,10,2,random,"['x', 'm', 'n', 'z']",xmnzx,nz,True,HF-random,nz,True
4028,2012-10-24 00:00:00,S04,x,x,0.279826879501,0,1,1,777,10,2,pattern,"['x', 'm', 'n', 'z']",xmnzx,zx,True,HF-pattern,zz,False
4029,2012-10-24 00:00:00,S04,m,x,0.054484844207800004,0,1,0,778,10,2,random,"['x', 'm', 'n', 'z']",xmnzx,zm,False,LF-random,zx,False
4031,2012-10-24 00:00:00,S04,m,m,0.0475838184357,0,1,1,779,10,2,pattern,"['x', 'm', 'n', 'z']",xmnzx,xm,True,HF-pattern,xm,True
4032,2012-10-24 00:00:00,S04,x,x,0.311887025833,0,1,1,780,10,2,random,"['x', 'm', 'n', 'z']",xmnzx,mx,False,LF-random,mm,False
4033,2012-10-24 00:00:00,S04,n,x,0.053972005844099995,0,1,0,781,10,2,pattern,"['x', 'm', 'n', 'z']",xmnzx,mn,True,HF-pattern,mx,False
4035,2012-10-24 00:00:00,S04,n,n,0.0337469577789,0,1,1,782,10,2,random,"['x', 'm', 'n', 'z']",xmnzx,xn,False,LF-random,xn,True
4036,2012-10-24 00:00:00,S04,z,z,0.330348968506,0,1,1,783,10,2,pattern,"['x', 'm', 'n', 'z']",xmnzx,nz,True,HF-pattern,nn,False
